"Time (s)","Acceleration x (m/s^2)","Acceleration y (m/s^2)","Acceleration z (m/s^2)"
1.201354400E-2,-8.315058798E-2,7.058826834E-2,9.742377281E0
1.410550400E-2,-4.965107143E-2,8.494520187E-2,9.732806206E0
1.621432800E-2,-9.750752151E-2,6.101697683E-2,9.799804688E0
1.832315200E-2,-9.750752151E-2,7.058826834E-2,9.780662537E0
2.043197600E-2,-9.750752151E-2,9.930214286E-2,9.718449593E0
2.253881500E-2,-1.022931710E-1,8.973085135E-2,9.742377281E0
2.464833200E-2,-7.836493850E-2,8.494520187E-2,9.771091461E0
2.675454200E-2,-8.793623000E-2,7.058826834E-2,9.771091461E0
2.886242300E-2,-1.022931710E-1,7.058826834E-2,9.747162819E0
3.097031300E-2,-1.357926875E-1,6.101697683E-2,9.738189697E0
3.307909900E-2,-1.214357466E-1,8.973085135E-2,9.728020668E0
3.518746600E-2,-9.272187948E-2,8.015955985E-2,9.728020668E0
3.729636400E-2,-1.357926875E-1,4.725824669E-2,9.790832520E0
3.940189300E-2,-1.262213886E-1,8.015955985E-2,9.775876999E0
4.150466700E-2,-1.118644550E-1,9.930214286E-2,9.728020668E0
4.361998200E-2,-1.022931710E-1,6.580262631E-2,9.737591743E0
4.572833900E-2,-9.750752151E-2,7.058826834E-2,9.775876999E0
4.783833600E-2,-9.272187948E-2,8.494520187E-2,9.771091461E0
4.994464900E-2,-8.793623000E-2,7.537391037E-2,9.747162819E0
5.205329200E-2,-9.272187948E-2,6.101697683E-2,9.737591743E0
5.416235000E-2,-8.793623000E-2,8.973085135E-2,9.747162819E0
5.626988400E-2,-5.922235921E-2,6.580262631E-2,9.751948357E0
5.837885200E-2,-7.836493850E-2,8.015955985E-2,9.761520386E0
6.048597000E-2,-9.750752151E-2,8.015955985E-2,9.751948357E0
6.259707500E-2,-1.022931710E-1,7.537391037E-2,9.737591743E0
6.471547200E-2,-8.315058798E-2,7.058826834E-2,9.747162819E0
6.682363600E-2,-9.750752151E-2,6.101697683E-2,9.780662537E0
6.893238100E-2,-9.750752151E-2,7.537391037E-2,9.756733894E0
7.103845000E-2,-9.750752151E-2,7.058826834E-2,9.766305923E0
7.314567900E-2,-9.750752151E-2,6.101697683E-2,9.756733894E0
7.525384200E-2,-9.272187948E-2,9.451649338E-2,9.766305923E0
7.735794900E-2,-9.272187948E-2,7.537391037E-2,9.756733894E0
7.945384600E-2,-7.836493850E-2,6.580262631E-2,9.737591743E0
8.157607900E-2,-9.272187948E-2,8.015955985E-2,9.756733894E0
8.368692900E-2,-1.118644550E-1,7.537391037E-2,9.775876999E0
8.579949700E-2,-9.750752151E-2,6.101697683E-2,9.751948357E0
8.790515900E-2,-1.118644550E-1,6.580262631E-2,9.747162819E0
9.001129000E-2,-9.750752151E-2,6.580262631E-2,9.751948357E0
9.211842700E-2,-8.793623000E-2,7.058826834E-2,9.761520386E0
9.422644900E-2,-1.070788130E-1,8.015955985E-2,9.751948357E0
9.633523400E-2,-1.214357466E-1,5.623133108E-2,9.751948357E0
9.844521900E-2,-9.750752151E-2,6.580262631E-2,9.766305923E0
1.005494570E-1,-9.272187948E-2,8.494520187E-2,9.751948357E0
1.026464320E-1,-7.357929647E-2,6.101697683E-2,9.756733894E0
1.047705260E-1,-5.922235921E-2,7.058826834E-2,9.766305923E0
1.068776740E-1,-9.750752151E-2,6.580262631E-2,9.761520386E0
1.089898360E-1,-9.272187948E-2,5.623133108E-2,9.728020668E0
1.110919080E-1,-9.272187948E-2,7.058826834E-2,9.737591743E0
1.131944370E-1,-7.357929647E-2,7.537391037E-2,9.747162819E0
1.153106880E-1,-7.836493850E-2,5.623133108E-2,9.761520386E0
1.174192390E-1,-8.793623000E-2,6.580262631E-2,9.747162819E0
1.195272720E-1,-7.836493850E-2,6.580262631E-2,9.737591743E0
1.216259040E-1,-6.400800496E-2,8.015955985E-2,9.766305923E0
1.237347410E-1,-8.315058798E-2,6.101697683E-2,9.780662537E0
1.258529650E-1,-6.400800496E-2,2.273181453E-2,9.733404160E0
1.279620150E-1,-1.166501045E-1,1.040877849E-1,9.766305923E0
1.300706780E-1,-9.272187948E-2,4.187439755E-2,9.723235130E0
1.321737970E-1,-7.836493850E-2,3.708875179E-2,9.732806206E0
1.342749420E-1,-1.070788130E-1,5.623133108E-2,9.775876999E0
1.363934720E-1,-6.400800496E-2,2.273181453E-2,9.771091461E0
1.385024610E-1,-1.214357466E-1,4.187439755E-2,9.790233612E0
1.406121220E-1,-9.750752151E-2,1.040877849E-1,9.751350403E0
1.427178040E-1,-4.965107143E-2,4.666004330E-2,9.766305923E0
1.448234140E-1,-8.315058798E-2,4.666004330E-2,9.785448074E0
1.469243360E-1,-7.357929647E-2,2.273181453E-2,9.809376717E0
1.490429690E-1,-4.007977992E-2,3.230310604E-2,9.780662537E0
1.511506550E-1,-3.050848842E-2,3.230310604E-2,9.747162819E0
1.532603350E-1,-4.007977992E-2,3.589233849E-3,9.762118340E0
1.553649900E-1,-3.589234129E-2,-5.862415582E-2,9.767501831E0
1.574669690E-1,-2.572284266E-2,-1.555334684E-2,9.757332802E0
1.595841980E-1,-2.093719877E-2,3.589233849E-3,9.756733894E0
1.616920580E-1,-1.615155302E-2,-4.905286431E-2,9.781260490E0
1.638024300E-1,-2.093719877E-2,-6.340979785E-2,9.790832520E0
1.659086710E-1,-5.503492057E-2,-5.862415582E-2,9.791430473E0
1.680167130E-1,-3.589234129E-2,-7.776673883E-2,9.767501831E0
1.701254790E-1,-1.674975827E-2,-1.555334684E-2,9.723833084E0
1.722343350E-1,-1.196411345E-2,-2.033899166E-2,9.695118904E0
1.743416340E-1,-6.939185411E-2,8.374879137E-3,9.647262573E0
1.764492190E-1,-1.118644550E-1,4.666004330E-2,9.737591743E0
1.785554310E-1,-1.501496136E-1,1.094716340E-1,9.737591743E0
1.806666780E-1,-1.692921966E-1,9.032905847E-2,9.751948357E0
1.827748120E-1,-1.692921966E-1,1.525424421E-1,9.669994354E0
1.848834730E-1,-1.399801224E-1,1.190429255E-1,9.770493507E0
1.869913130E-1,-1.112662554E-1,8.973085135E-2,9.814162254E0
1.890977690E-1,-1.405783296E-1,7.597211748E-2,9.799804688E0
1.911976230E-1,-1.022931710E-1,-2.033899166E-2,9.781260490E0
1.933168040E-1,-8.793623000E-2,8.374879137E-3,9.819545746E0
1.954238600E-1,-5.922235921E-2,-4.905286431E-2,9.820143700E0
1.975349330E-1,-6.939185411E-2,-4.426721856E-2,9.753145218E0
1.996378280E-1,-6.460621208E-2,-5.383851007E-2,9.710074425E0
2.017389030E-1,-8.374879509E-2,-5.862415582E-2,9.700503349E0
2.038577490E-1,-8.853443712E-2,-6.340979785E-2,9.700503349E0
2.059663810E-1,-9.272187948E-2,-2.991028316E-2,9.795618057E0
2.080760710E-1,-1.262213886E-1,3.230310604E-2,9.805189133E0
2.101791590E-1,-1.453639716E-1,1.238285750E-1,9.728020668E0
2.122795630E-1,-1.549352705E-1,1.142572835E-1,9.694520950E0
2.143985000E-1,-1.926222295E-1,2.578266263E-1,9.722038269E0
2.165065830E-1,-1.639083475E-1,2.769692242E-1,9.721440315E0
2.186176870E-1,-2.303091735E-1,3.248256743E-1,9.745368004E0
2.207228110E-1,-2.829512656E-1,3.732803464E-1,9.778269768E0
2.228307310E-1,-2.446661144E-1,3.637090325E-1,9.787840843E0
2.249383960E-1,-2.207378894E-1,3.343969584E-1,9.783653259E0
2.270482200E-1,-1.872383654E-1,3.343969584E-1,9.759127617E0
2.291559160E-1,-1.447657645E-1,2.243271172E-1,9.731609344E0
2.312634510E-1,-1.262213886E-1,8.973085135E-2,9.728020668E0
2.333693370E-1,-1.597209126E-1,9.032905847E-2,9.780662537E0
2.354686090E-1,-1.740778536E-1,6.640082598E-2,9.762118340E0
2.375896010E-1,-1.645065546E-1,2.333002165E-2,9.752547264E0
2.396983050E-1,-1.836491376E-1,3.290131316E-2,9.757332802E0
2.418084230E-1,-2.273181528E-1,4.187439568E-3,9.738788605E0
2.439160370E-1,-2.608176768E-1,-1.495514158E-2,9.743574142E0
2.460314140E-1,-2.799602449E-1,2.333002165E-2,9.690931320E0
2.481305660E-1,-2.560320199E-1,2.811566554E-2,9.667003632E0
2.502385680E-1,-2.368894368E-1,8.075776696E-2,9.637691498E0
2.523442910E-1,-1.836491376E-1,1.621137410E-1,9.650852203E0
2.544552630E-1,-1.543370634E-1,2.291127741E-1,9.693324089E0
2.565642930E-1,-1.489532143E-1,3.104687333E-1,9.759725571E0
2.586718780E-1,-1.010967568E-1,3.439682424E-1,9.773484230E0
2.607808050E-1,-8.195417374E-2,3.290131092E-1,9.783055305E0
2.628876770E-1,-4.845465720E-2,2.620140910E-1,9.806983948E0
2.649963000E-1,1.854437590E-2,1.902294010E-1,9.798010826E0
2.671045260E-1,3.708875179E-2,1.375873089E-1,9.784252167E0
2.692103100E-1,9.930214286E-2,8.913264424E-2,9.803394318E0
2.713110380E-1,1.136590764E-1,4.606183618E-2,9.885348320E0
2.734301780E-1,1.136590764E-1,5.563312769E-2,9.918250084E0
2.755374570E-1,8.913264424E-2,1.734796353E-2,9.818349838E0
2.776458250E-1,4.127619043E-2,2.991028363E-3,9.838089943E0
2.797433600E-1,-2.572284266E-2,3.708875179E-2,9.790233612E0
2.818606390E-1,-3.050848842E-2,7.537391037E-2,9.751350403E0
2.839688850E-1,-7.357929647E-2,6.580262631E-2,9.775876999E0
2.860800200E-1,-9.212367237E-2,8.494520187E-2,9.799804688E0
2.881833320E-1,-9.690931439E-2,1.232303679E-1,9.847063065E0
2.902803680E-1,-8.255238086E-2,1.280160099E-1,9.784850121E0
2.924036900E-1,-7.776673883E-2,1.184447184E-1,9.746564865E0
2.945117320E-1,-9.272187948E-2,1.232303679E-1,9.698708534E0
2.966236500E-1,-1.016949639E-1,1.184447184E-1,9.756135941E0
2.987281740E-1,-5.922235921E-2,8.973085135E-2,9.765707016E0
3.008363480E-1,-6.879365444E-2,8.015955985E-2,9.761520386E0
3.029447470E-1,-5.443671346E-2,5.623133108E-2,9.756733894E0
3.050531540E-1,-4.486542568E-2,3.708875179E-2,9.766305923E0
3.071622650E-1,-3.050848842E-2,6.101697683E-2,9.766305923E0
3.092694840E-1,-3.529413417E-2,5.623133108E-2,9.775876999E0
3.113751770E-1,-6.580262445E-3,7.058826834E-2,9.746564865E0
3.134755290E-1,-5.443671346E-2,8.015955985E-2,9.747162819E0
3.155944960E-1,-5.862415582E-2,1.136590764E-1,9.780064583E0
3.177023760E-1,-6.340979785E-2,1.184447184E-1,9.818349838E0
3.198132060E-1,-6.340979785E-2,1.184447184E-1,9.770493507E0
3.219165180E-1,-4.905286431E-2,1.806581169E-1,9.812965393E0
3.240181510E-1,-2.991028316E-2,1.854437590E-1,9.726823807E0
3.261356750E-1,-5.443671346E-2,1.806581169E-1,9.645467758E0
3.282447340E-1,-7.776673883E-2,1.950150430E-1,9.750752449E0
3.303542120E-1,-7.238288224E-2,1.902294010E-1,9.832108498E0
3.324600870E-1,-2.452643216E-2,1.950150430E-1,9.808179855E0
3.345680280E-1,-2.033899166E-2,2.333002090E-1,9.731011391E0
3.366767110E-1,-2.452643216E-2,2.763710022E-1,9.773484230E0
3.387852110E-1,-1.016949583E-2,3.194418252E-1,9.682557106E0
3.408938750E-1,-2.931207791E-2,3.577269912E-1,9.748957634E0
3.430003100E-1,-2.452643216E-2,3.768695593E-1,9.715457916E0
3.451104780E-1,0.000000000E0,3.816552162E-1,9.796216011E0
3.472177160E-1,3.828516230E-2,4.486542344E-1,9.786046028E0
3.493258310E-1,3.349951655E-2,4.390829504E-1,9.700503349E0
3.514317170E-1,3.828516230E-2,4.247260094E-1,9.743574142E0
3.535426180E-1,4.307080805E-2,4.630111754E-1,9.675976753E0
3.556511580E-1,9.571290575E-3,4.247260094E-1,9.676574707E0
3.577608890E-1,-2.871387079E-2,3.864408433E-1,9.763314247E0
3.598674360E-1,-4.785645381E-2,3.337987661E-1,9.835099220E0
3.619755200E-1,-9.092725813E-2,3.870390654E-1,9.844670296E0
3.640836530E-1,-8.195417374E-2,4.007977843E-1,9.705886841E0
3.661880030E-1,-8.614161611E-2,4.348955154E-1,9.772287369E0
3.682841130E-1,-4.307080805E-2,4.534398913E-1,9.714859962E0
3.704085240E-1,-6.221338734E-2,4.438686073E-1,9.700503349E0
3.725170240E-1,-5.742774159E-2,3.672982752E-1,9.772886276E0
3.746302030E-1,-9.631111473E-2,3.104687333E-1,9.792626381E0
3.767284800E-1,-7.238288224E-2,2.859423161E-1,9.773484230E0
3.788221090E-1,-4.845465720E-2,3.050848842E-1,9.706484795E0
3.809496820E-1,-4.845465720E-2,2.907279432E-1,9.730413437E0
3.830580710E-1,-5.802594870E-2,2.955136001E-1,9.806983948E0
3.851712490E-1,-5.802594870E-2,2.763710022E-1,9.754940033E0
3.872752130E-1,-7.238288224E-2,2.524427772E-1,9.778867722E0
3.893835610E-1,-1.112662554E-1,2.291127741E-1,9.755537987E0
3.914826410E-1,-1.202393398E-1,2.817548811E-1,9.769296646E0
3.935995540E-1,-5.383851007E-2,2.859423161E-1,9.702297211E0
3.957079120E-1,-4.845465720E-2,3.672982752E-1,9.725028992E0
3.978179270E-1,-4.785645287E-3,4.295116663E-1,9.705288887E0
3.999216170E-1,-5.324030295E-2,4.247260094E-1,9.647860527E0
4.020223960E-1,-1.004985496E-1,5.114658475E-1,9.704689980E0
4.041407220E-1,-8.075776696E-2,5.210371017E-1,9.752547264E0
4.062491710E-1,-5.264209956E-2,4.725824594E-1,9.781260490E0
4.083605210E-1,5.982056609E-4,4.821537733E-1,9.819545746E0
4.104626830E-1,5.982056609E-4,5.539384484E-1,9.766305923E0
4.125609410E-1,1.974078640E-2,5.635097623E-1,9.766305923E0
4.146717900E-1,5.383851007E-3,5.539384484E-1,9.809376717E0
4.167906450E-1,3.948157281E-2,6.017948985E-1,9.827920914E0
4.189009360E-1,6.819544733E-2,6.592226624E-1,9.750752449E0
4.210090400E-1,4.965107143E-2,7.310073376E-1,9.778867722E0
4.231148540E-1,-1.316052489E-2,7.740781307E-1,9.668798447E0
4.252241780E-1,-3.230310604E-2,7.890332937E-1,9.711270332E0
4.273312840E-1,6.580262445E-3,8.458628058E-1,9.748957634E0
4.294411380E-1,-3.649054468E-2,9.134600163E-1,9.705886841E0
4.315538200E-1,-2.632104978E-2,9.134600163E-1,9.781859398E0
4.336560330E-1,1.674975827E-2,9.367900491E-1,9.767501831E0
4.357644210E-1,-1.674975827E-2,8.751748800E-1,9.792028427E0
4.378710290E-1,-3.649054468E-2,8.512466550E-1,9.768099785E0
4.399810860E-1,-6.041877344E-2,8.560323119E-1,9.644271851E0
4.420899730E-1,-1.226321608E-1,8.703892231E-1,9.677771568E0
4.441946880E-1,-1.172483116E-1,8.608179688E-1,9.826126099E0
4.462952750E-1,-1.118644550E-1,9.996016622E-1,9.862616539E0
4.484135200E-1,-4.426721856E-2,1.124028444E0,9.851848602E0
4.505219600E-1,-6.460621208E-2,1.109671474E0,9.641879082E0
4.526327690E-1,-5.084748194E-2,1.061815023E0,9.518050194E0
4.547361110E-1,-3.110669367E-2,1.033101201E0,9.709476471E0
4.568374100E-1,-6.460621208E-2,9.996016622E-1,9.762118340E0
4.589561340E-1,-1.603191197E-1,9.948160052E-1,9.690931320E0
4.610634340E-1,-1.172483116E-1,1.037886858E0,9.719047546E0
4.631748830E-1,-1.501496136E-1,1.038485050E0,9.795618057E0
4.652793950E-1,-3.182454109E-1,1.048654556E0,9.777072906E0
4.673879260E-1,-3.182454109E-1,1.077368379E0,9.743574142E0
4.694934970E-1,-2.416750938E-1,1.057627559E0,9.714859962E0
4.715939610E-1,-2.602194548E-1,1.024128079E0,9.834501266E0
4.737113830E-1,-3.092723191E-1,9.236295223E-1,9.749555588E0
4.758207170E-1,-2.667997181E-1,7.944171429E-1,9.707681656E0
4.779318410E-1,-2.620140910E-1,7.417750359E-1,9.693922997E0
4.800378090E-1,-2.189432681E-1,6.269195080E-1,9.828518867E0
4.821456490E-1,-2.667997181E-1,7.322037220E-1,9.756135941E0
4.842539350E-1,-2.901297510E-1,8.949156404E-1,9.768698692E0
4.863622210E-1,-2.033899277E-1,9.379864931E-1,9.882955551E0
4.884711390E-1,-2.267199457E-1,1.000199914E0,9.839286804E0
4.905813690E-1,-2.703889608E-1,1.105484009E0,9.661619186E0
4.926878850E-1,-2.416750938E-1,1.167697430E0,9.512666702E0
4.947952650E-1,-2.697907388E-1,1.210768223E0,9.626923561E0
4.969027790E-1,-2.745763958E-1,1.067198873E0,9.824331284E0
4.990085230E-1,-2.548356056E-1,1.010369420E0,9.992427826E0
5.011083460E-1,-3.170489967E-1,1.120439172E0,9.958329201E0
5.032281680E-1,-2.745763958E-1,1.215553880E0,9.693922997E0
5.053367900E-1,-1.351944804E-1,1.076770186E0,9.900303841E0
5.074478640E-1,-1.680957973E-1,1.158126116E0,9.985847473E0
5.095518180E-1,-1.591227055E-1,1.220339537E0,9.760323524E0
5.116483040E-1,-1.405783296E-1,1.205982566E0,9.646066666E0
5.137596120E-1,-1.686939895E-1,1.311266780E0,9.692726135E0
5.158777860E-1,-1.202393398E-1,1.325623751E0,9.806983948E0
5.179885850E-1,-1.776670814E-1,1.450050473E0,9.634101868E0
5.200968320E-1,-1.531406492E-1,1.560120344E0,9.632905960E0
5.222022080E-1,-1.190429255E-1,1.665404558E0,9.646066666E0
5.243083080E-1,-9.990034252E-2,1.631905079E0,9.699306488E0
5.264100730E-1,-6.221338734E-2,1.482951880E0,9.710074425E0
5.285279530E-1,-5.324030295E-2,1.420738459E0,9.638887405E0
5.306364940E-1,-3.469592705E-2,1.224527001E0,9.698110580E0
5.327442820E-1,4.127619043E-2,1.118644595E0,9.756135941E0
5.348454880E-1,-5.862415582E-2,1.042672515E0,9.943374634E0
5.369597050E-1,-8.195417374E-2,1.186840057E0,9.942177773E0
5.390684600E-1,2.811566554E-2,1.425524116E0,9.705288887E0
5.411781610E-1,-5.802594870E-2,1.545165181E0,9.513264656E0
5.432843530E-1,-2.991028316E-2,1.449452281E0,9.394820213E0
5.453920280E-1,-3.409772366E-2,1.262812138E0,9.821938515E0
5.474965910E-1,-1.142572835E-1,1.258624673E0,1.010429192E1
5.495901890E-1,0.000000000E0,1.234098315E0,9.970293999E0
5.517186180E-1,-2.871387079E-2,1.291526079E0,9.921838760E0
5.538291630E-1,5.383851007E-3,1.674377680E0,9.650253296E0
5.559510390E-1,-4.785645381E-2,1.770090580E0,9.415757179E0
5.580428050E-1,-4.666004330E-2,1.913659930E0,9.461818695E0
5.601518960E-1,-2.727817893E-1,1.823929071E0,9.387042999E0
5.622561340E-1,-1.962114573E-1,1.545763373E0,9.652647018E0
5.643673500E-1,-2.195414752E-1,1.302293777E0,1.007079220E1
5.664753720E-1,-1.866401732E-1,1.335195065E0,9.936196327E0
5.685838820E-1,-1.920240223E-1,1.416550994E0,9.753743172E0
5.706919550E-1,-2.727817893E-1,1.522433400E0,9.700503349E0
5.728002530E-1,-2.213360965E-1,1.402194023E0,9.567701340E0
5.749088640E-1,-3.110669553E-1,1.388435364E0,9.859625816E0
5.770155340E-1,-1.914258152E-1,1.402194023E0,9.797411919E0
5.791155400E-1,-2.392822653E-1,1.311864972E0,9.908080101E0
5.812334710E-1,-1.429711580E-1,1.378265858E0,1.002173901E1
5.833412790E-1,-1.770688742E-1,1.306481123E0,9.989436150E0
5.854522000E-1,-1.968096644E-1,1.229910851E0,9.932606697E0
5.875555520E-1,-3.403790295E-1,1.359721422E0,9.798010826E0
5.896562610E-1,-4.354937077E-1,1.427318692E0,9.865009308E0
5.917748420E-1,-3.972085714E-1,1.393819213E0,9.903294563E0
5.938838210E-1,-4.977070987E-1,1.508674622E0,9.806983948E0
5.959938050E-1,-5.515456200E-1,1.585245013E0,9.448060036E0
5.981002610E-1,-4.522434771E-1,1.508076429E0,9.214161873E0
6.002047630E-1,-4.366901219E-1,1.445863128E0,9.544371605E0
6.023053600E-1,-2.542374134E-1,1.201795220E0,9.890133858E0
6.044226690E-1,-1.633101404E-1,1.234696507E0,9.846465111E0
6.065320240E-1,-3.421736360E-1,1.110867858E0,9.575477600E0
6.086433520E-1,-8.374879509E-2,9.182456732E-1,9.738788605E0
6.107466550E-1,2.213360928E-2,7.890332937E-1,1.006959629E1
6.128432940E-1,3.230310604E-2,1.195813060E0,9.764511108E0
6.149652820E-1,-2.991028316E-2,1.396810174E0,9.562317848E0
6.170732330E-1,-5.383851007E-3,1.459023595E0,9.576076508E0
6.191869930E-1,-9.571290761E-2,1.512263894E0,9.656833649E0
6.212947910E-1,-1.058823988E-1,1.497906923E0,9.614361763E0
6.233896100E-1,-1.298106313E-1,1.736590981E0,9.306285858E0
6.255067350E-1,-2.297109663E-1,1.966900229E0,9.223134995E0
6.276141370E-1,-3.116651475E-1,1.847857237E0,9.224330902E0
6.297252520E-1,-4.845465720E-2,1.506880045E0,9.604191780E0
6.318311580E-1,-7.956135273E-2,1.383051515E0,1.025563812E1
6.339391190E-1,-2.799602449E-1,1.613958836E0,1.018265629E1
6.360478020E-1,-3.284149170E-1,1.724028707E0,9.990633011E0
6.381560780E-1,-2.003988922E-1,1.618146300E0,9.771091461E0
6.402643040E-1,4.785645287E-3,1.487737536E0,9.642477036E0
6.423701500E-1,3.768695518E-2,1.435095429E0,9.595218658E0
6.444716210E-1,2.213360965E-1,1.482353687E0,9.971489906E0
6.465889410E-1,1.453639716E-1,1.511665702E0,1.006241703E1
6.486972370E-1,2.303091735E-1,1.372283816E0,1.001097202E1
6.508077210E-1,2.973082066E-1,1.386042476E0,9.948160172E0
6.529136580E-1,2.500499785E-1,1.501496196E0,9.918848038E0
6.550193600E-1,2.129612118E-1,1.630708575E0,1.011386299E1
6.571199260E-1,2.703889608E-1,1.635494232E0,1.003190899E1
6.592387410E-1,2.027917206E-1,1.798206210E0,9.734601021E0
6.613445970E-1,2.261217386E-1,1.850848317E0,9.528220177E0
6.634452140E-1,1.106680483E-1,1.841277003E0,9.394820213E0
6.655621970E-1,1.148554832E-1,1.802991867E0,9.294919968E0
6.676677370E-1,2.979064286E-1,1.816750646E0,9.494720459E0
6.697827580E-1,3.230310678E-1,1.826920033E0,9.867402077E0
6.718878810E-1,2.997010350E-1,2.085345030E0,9.698110580E0
6.739970220E-1,1.782652885E-1,1.879562140E0,9.461220741E0
6.761021550E-1,2.793620527E-1,1.534995675E0,1.010488987E1
6.782033710E-1,2.225325108E-1,1.726421595E0,1.003609657E1
6.803209970E-1,2.542374134E-1,1.850250125E0,9.312865257E0
6.824290810E-1,1.280160099E-1,1.721037745E0,9.018548965E0
6.845398280E-1,2.632105052E-1,1.610967875E0,9.425328255E0
6.866457650E-1,2.488535494E-1,1.367498159E0,9.862616539E0
6.887542550E-1,1.818545163E-1,1.161715388E0,1.004626560E1
6.908622670E-1,1.339980662E-1,1.266999602E0,9.892526627E0
6.929705440E-1,8.075776696E-2,1.205384374E0,9.936196327E0
6.950796030E-1,-8.075776696E-2,1.263410330E0,1.016112137E1
6.971869540E-1,-1.890329868E-1,1.407577872E0,1.049491978E1
6.992930030E-1,-1.668993831E-1,1.617548108E0,9.771091461E0
7.013929990E-1,-2.111666054E-1,1.832902193E0,9.138189316E0
7.035120880E-1,-3.888336942E-2,1.693520188E0,9.301499367E0
7.056199470E-1,1.537388563E-1,1.472782373E0,9.871589661E0
7.077307360E-1,2.979064286E-1,1.405783296E0,1.008215809E1
7.098341200E-1,3.176472187E-1,1.233500123E0,1.045184898E1
7.119330990E-1,3.266202807E-1,1.396211982E0,1.011087227E1
7.140428910E-1,1.286142170E-1,1.611566067E0,9.449854851E0
7.161611150E-1,1.130608693E-1,1.735394597E0,8.937192917E0
7.182696670E-1,-6.340979785E-2,1.798804402E0,9.018548965E0
7.203722780E-1,-3.068794906E-1,2.139183521E0,8.776873589E0
7.224858550E-1,-2.458625287E-1,1.861616015E0,8.798408508E0
7.245943330E-1,-1.639083475E-1,1.282552958E0,9.625727654E0
7.267046040E-1,-1.489532143E-1,8.470591903E-1,1.042851925E1
7.288116290E-1,-2.452643216E-2,6.460621357E-1,1.051585770E1
7.309187460E-1,1.842473447E-1,7.166503668E-1,1.004148006E1
7.330265250E-1,2.069791555E-1,8.979067206E-1,9.509077072E0
7.351340570E-1,2.033899277E-1,1.036690354E0,9.626923561E0
7.372439920E-1,2.231307179E-1,9.744769931E-1,9.895518303E0
7.393491660E-1,1.680957973E-1,7.411768436E-1,1.072463131E1
7.414498640E-1,8.315058798E-2,9.906286001E-1,1.070369434E1
7.435660550E-1,-5.682953820E-2,1.473978758E0,9.920642853E0
7.456674740E-1,-1.208375469E-1,1.722234130E0,9.172286987E0
7.477874900E-1,-1.728814393E-1,1.813759565E0,9.300901413E0
7.498931320E-1,-1.238285750E-1,1.818545222E0,9.506086349E0
7.520036260E-1,-5.623133108E-2,1.727617979E0,9.769894600E0
7.541070500E-1,-1.956132501E-1,1.761117458E0,9.631111145E0
7.562078290E-1,6.580262445E-3,1.454836130E0,1.021675491E1
7.583260340E-1,-2.949153781E-1,1.570888042E0,1.014975548E1
7.604344940E-1,-3.535395563E-1,1.632503271E0,9.757332802E0
7.625459850E-1,-3.601198196E-1,1.417149186E0,9.649655342E0
7.646489200E-1,-2.919243574E-1,1.350150228E0,9.955936432E0
7.667517030E-1,-1.950150430E-1,1.350150228E0,1.019940662E1
7.688671220E-1,-5.862415582E-2,1.238883972E0,9.736394882E0
7.709755510E-1,-1.842473447E-1,1.248455167E0,9.445069313E0
7.730856070E-1,1.076770201E-2,1.061216831E0,9.302696228E0
7.751920920E-1,7.238288224E-2,9.218349457E-1,9.265607834E0
7.773005830E-1,2.195414752E-1,7.633104324E-1,9.208778381E0
7.794079650E-1,3.302095234E-1,4.331009090E-1,9.641879082E0
7.815098730E-1,2.452643216E-1,2.231307179E-1,1.023230743E1
7.836249750E-1,5.623133108E-2,3.332005441E-1,9.500701904E0
7.857328850E-1,6.460621208E-2,4.719842672E-1,9.116654396E0
7.878407340E-1,-8.255238086E-2,6.448656917E-1,9.287740707E0
7.899392860E-1,-2.380858511E-1,5.072783828E-1,9.963713646E0
7.920565250E-1,-3.888336942E-2,2.775674164E-1,1.106919765E1
7.941649530E-1,8.973085321E-3,7.172485590E-1,1.043390274E1
7.962768810E-1,2.572284266E-2,1.008574724E0,9.594620705E0
7.983832550E-1,-3.589234129E-2,1.195813060E0,9.468399048E0
8.004921630E-1,-2.991028363E-3,1.329213023E0,9.041878700E0
8.025992390E-1,-1.310070455E-1,1.401595831E0,9.404989243E0
8.047076270E-1,-3.589234129E-2,1.204786181E0,9.363115311E0
8.068156090E-1,-1.118644550E-1,9.810572863E-1,9.915258408E0
8.089215050E-1,-8.614161611E-2,8.422735929E-1,1.043749237E1
8.110221210E-1,3.828516230E-2,7.890332937E-1,1.059063339E1
8.131416180E-1,3.535395563E-1,9.744769931E-1,1.003789139E1
8.152486420E-1,4.624129832E-1,9.882357717E-1,9.712467194E0
8.173596150E-1,2.177468538E-1,1.127617717E0,9.458827972E0
8.194656740E-1,1.022931710E-1,1.443470240E0,8.939585686E0
8.215732480E-1,-5.383851007E-2,1.559522152E0,9.379266739E0
8.236714140E-1,-2.626122832E-1,1.527219057E0,9.853643417E0
8.257899940E-1,-2.255235314E-1,1.148554921E0,9.942776680E0
8.278978230E-1,-1.525424421E-1,8.572286963E-1,1.057627583E1
8.300100060E-1,-3.110669367E-2,6.502495408E-1,1.013779163E1
8.321097680E-1,1.764706671E-1,4.959124923E-1,9.431310654E0
8.342037930E-1,5.234299302E-1,3.128615618E-1,1.026341438E1
8.363310910E-1,5.730810165E-1,6.915257573E-1,1.027418232E1
8.384394600E-1,3.840480447E-1,1.016351461E0,9.181859016E0
8.405525080E-1,4.115654826E-1,1.006780148E0,8.870791435E0
8.426537850E-1,3.254238665E-1,1.035493970E0,8.966505051E0
8.447565470E-1,3.218346536E-1,8.111668825E-1,9.504291534E0
8.468736530E-1,2.015953064E-1,4.683950245E-1,1.100877857E1
8.489807190E-1,4.845465720E-2,8.087740541E-1,1.066660500E1
8.510909390E-1,-1.040877849E-1,1.009172916E0,9.351150513E0
8.531968460E-1,-6.340979785E-2,1.161117196E0,8.517850876E0
8.553054370E-1,-2.033899277E-1,1.066002488E0,8.456833839E0
8.574137040E-1,8.374879509E-2,6.209374666E-1,1.015693378E1
8.595195590E-1,-3.708875179E-2,4.504488707E-1,1.120140076E1
8.616205620E-1,5.204389244E-2,1.716850251E-1,1.106022453E1
8.637379020E-1,-1.130608693E-1,3.780659735E-1,1.028913784E1
8.658431770E-1,-2.991028316E-2,6.634100676E-1,9.115457535E0
8.679481890E-1,2.512463741E-2,6.113662124E-1,9.799206734E0
8.700633210E-1,1.274178028E-1,9.080761671E-1,9.910472870E0
8.721716490E-1,1.010967568E-1,1.108475089E0,9.034101486E0
8.742819180E-1,4.127619043E-2,9.840483069E-1,8.581260681E0
8.763848340E-1,-1.070788130E-1,9.942178130E-1,8.687142372E0
8.784842810E-1,-3.050848842E-2,3.481557071E-1,9.438488960E0
8.806055370E-1,2.991028316E-2,6.161518395E-2,1.045424175E1
8.827125430E-1,-1.387837082E-1,9.990034252E-2,1.012463093E1
8.848239620E-1,-1.878365725E-1,-4.845465720E-2,1.012642574E1
8.869287690E-1,-3.409772217E-1,8.135596663E-2,1.000618649E1
8.890373200E-1,-4.025924206E-1,2.829512656E-1,9.899705887E0
8.911457500E-1,-1.047458172E0,3.906283081E-1,1.020179939E1
8.932542510E-1,-3.118446112E0,2.871387303E-1,8.719446182E0
8.953626480E-1,-1.746760488E0,3.972085714E-1,8.995218277E0
8.974684120E-1,1.914258152E-1,4.827519655E-1,1.092802143E1
8.995651630E-1,1.774876237E0,8.219345808E-1,1.125284672E1
9.016868770E-1,2.148754835E0,9.529415965E-1,9.826126099E0
9.037948190E-1,2.193022013E0,9.858429432E-1,8.907880783E0
9.059066650E-1,1.492523074E0,1.049850941E0,8.493922234E0
9.080103850E-1,9.948160052E-1,8.943174481E-1,8.750552177E0
9.101125780E-1,6.125625968E-1,3.744767308E-1,9.636494637E0
9.122181070E-1,-9.218349457E-1,2.691925503E-2,1.085503960E1
9.143374710E-1,-1.179661512E0,-1.058823988E-1,1.124925709E1
9.164458190E-1,-1.468594909E0,3.397808075E-1,1.029511929E1
9.185554790E-1,-1.395613790E0,4.869394004E-1,9.270393372E0
9.206625960E-1,-9.146564603E-1,7.866404653E-1,9.351749420E0
9.227761220E-1,-5.180460811E-1,9.002995491E-1,9.076574326E0
9.248765040E-1,-1.992024779E-1,1.028913736E0,9.619147301E0
9.269861840E-1,-9.451649338E-2,7.028916478E-1,9.827322960E0
9.290926090E-1,1.974078640E-2,4.917250574E-1,9.848259926E0
9.312010490E-1,6.580262445E-3,2.901297510E-1,9.185447693E0
9.333004550E-1,1.794617064E-2,9.930214286E-2,9.827920914E0
9.354199110E-1,1.902294010E-1,-1.597209126E-1,1.008275604E1
9.375267730E-1,3.451646566E-1,-2.153540403E-2,1.043031406E1
9.396378770E-1,4.408775866E-1,2.267199457E-1,1.004028416E1
9.417432750E-1,9.427721500E-1,2.727817893E-1,9.755537987E0
9.438518360E-1,1.052842021E0,2.913261652E-1,9.664012909E0
9.459601940E-1,6.586244106E-1,4.169493318E-1,9.105288506E0
9.480693760E-1,2.237289101E-1,4.761717021E-1,9.269196510E0
9.501766150E-1,-2.327020019E-1,4.450650215E-1,1.032263660E1
9.522847490E-1,-5.042873621E-1,4.372883439E-1,1.064865875E1
9.543957610E-1,-4.767699242E-1,2.213360965E-1,1.055055332E1
9.565132230E-1,-5.407779217E-1,2.835494876E-1,1.006241703E1
9.586096180E-1,-3.637090325E-1,6.317051649E-1,9.580264091E0
9.607178030E-1,-3.864408433E-1,5.940182209E-1,1.003011417E1
9.628231910E-1,-4.713860750E-1,1.096511006E0,9.677172661E0
9.649370720E-1,-5.162515044E-1,1.460219979E0,8.856434822E0
9.670499980E-1,-1.632503271E0,1.569691658E0,8.611170769E0
9.691510920E-1,-8.464609981E-1,1.265205026E0,9.074779510E0
9.712588290E-1,-1.694118381E0,1.191625714E0,9.212367058E0
9.733653560E-1,-2.725425005E0,1.085145116E0,9.007183075E0
9.754754630E-1,2.458625287E-1,3.170489892E-2,1.062592697E1
9.775836790E-1,2.176870346E0,-7.166503668E-1,1.168175983E1
9.796920480E-1,1.465603828E0,-8.745766878E-1,8.799007416E0
9.817996120E-1,2.003988981E0,-1.365105271E0,8.586644173E0
9.839069630E-1,2.573480844E0,-1.481157184E0,9.866206169E0
9.860155430E-1,2.268994093E0,-1.555932879E0,1.059003448E1
9.881225790E-1,1.857428551E0,-1.248455167E0,1.022512913E1
9.902233280E-1,9.170492887E-1,-6.029912829E-1,1.032323551E1
9.923417870E-1,-1.350150228E0,6.448656917E-1,9.646066666E0
9.944500630E-1,-1.929811478E0,1.054038405E0,9.209974289E0
9.965607710E-1,-2.641077995E0,1.640878081E0,9.096913338E0
9.986648060E-1,-3.301496983E0,2.027318954E0,9.956535339E0
1.000764598E0,-8.446664214E-1,9.750752449E-1,1.117089272E1
1.002883648E0,1.986042857E-1,2.045863420E-1,1.061456108E1
1.004990723E0,4.109672904E-1,2.350948304E-1,8.543573380E0
1.007101766E0,1.306481123E0,-3.098705411E-1,7.800003529E0
1.009204397E0,2.124228239E0,-1.016351461E0,8.276773453E0
1.011301748E0,2.161915302E0,-1.283151150E0,9.799206734E0
1.013411693E0,1.680359721E0,-1.309472203E0,1.027896786E1
1.015520681E0,1.341177106E0,-1.078564763E0,1.025444126E1
1.017630768E0,8.315058947E-1,-7.663014531E-1,9.469595909E0
1.019738720E0,5.802595019E-1,-6.400800347E-1,9.966106415E0
1.021848940E0,4.534398913E-1,-7.920243144E-1,1.079521942E1
1.023965210E0,1.268195957E-1,-3.355933726E-1,1.128455162E1
1.026063528E0,-1.615155339E-1,1.627119333E-1,1.042552853E1
1.028174612E0,-1.830509305E-1,4.779663086E-1,9.413962364E0
1.030290651E0,-2.069791555E-1,6.885347366E-1,9.211171150E0
1.032399182E0,-1.674975902E-1,7.124629617E-1,9.416355133E0
1.034499248E0,3.768695518E-2,7.555337548E-1,1.042851925E1
1.036614585E0,-2.171486616E-1,1.019342422E0,9.829715729E0
1.038722617E0,-2.733799815E-1,1.267597795E0,8.670392990E0
1.040833457E0,-3.290131316E-2,8.111668825E-1,8.205587387E0
1.042936790E0,1.597209126E-1,4.546362907E-2,9.459425926E0
1.045037517E0,1.764706671E-1,-5.521438122E-1,1.070309544E1
1.047156282E0,1.860419661E-1,-7.142575383E-1,1.098664474E1
1.049265281E0,-2.572284266E-2,-2.991028428E-1,8.980861664E0
1.051374585E0,-4.432703853E-1,-1.974078715E-1,8.522636414E0
1.053479026E0,-1.435693651E-1,-4.271188378E-1,9.537193298E0
1.055587505E0,2.877369225E-1,-9.493523836E-1,1.145204926E1
1.057697491E0,-3.290131316E-2,-4.217349887E-1,1.086520958E1
1.059805717E0,-1.639083475E-1,-1.070788130E-1,8.840881348E0
1.061913943E0,-3.409772366E-2,-3.511467278E-1,9.244071960E0
1.064019706E0,2.177468538E-1,-6.813562512E-1,1.044646549E1
1.066121523E0,1.567298770E-1,-9.343972206E-1,1.095553875E1
1.068238701E0,-1.549352705E-1,-5.222335458E-1,1.040279675E1
1.070347710E0,-5.090730190E-1,5.204389244E-2,8.649456024E0
1.072456922E0,-5.132604837E-1,2.333002165E-2,8.773882866E0
1.074563092E0,-3.487538993E-1,-1.010967568E-1,9.329017639E0
1.076670676E0,-2.297109663E-1,-6.562315822E-1,9.864411354E0
1.078778373E0,-2.919243574E-1,-6.801598072E-1,9.888937950E0
1.080888156E0,-3.170489892E-2,-1.074377418E0,9.547362328E0
1.082997125E0,-1.100698411E-1,-1.471585870E0,9.513264656E0
1.085104821E0,1.052841991E-1,-1.749751568E0,9.768099785E0
1.087212161E0,2.530409992E-1,-1.946561217E0,9.807581902E0
1.089317711E0,1.609173268E-1,-1.788634896E0,9.452845573E0
1.091429182E0,4.444667995E-1,-1.817947030E0,9.705288887E0
1.093537204E0,2.650051117E-1,-1.859821439E0,1.037109184E1
1.095646274E0,1.160518974E-1,-1.781456470E0,1.134138107E1
1.097751427E0,-1.004985496E-1,-1.111466169E0,1.036032391E1
1.099852888E0,-1.591227055E-1,-7.429714203E-1,9.539586067E0
1.101970320E0,-3.361915946E-1,-1.304088384E-1,8.879764557E0
1.104078606E0,-4.528416991E-1,-9.571290575E-3,9.505488396E0
1.106189141E0,-6.095715761E-1,8.255238086E-2,9.782457352E0
1.108295179E0,-3.403790295E-1,-5.982056609E-4,8.945567131E0
1.110403171E0,2.991028363E-3,-6.149554253E-1,9.346963882E0
1.112510136E0,4.127619043E-2,-1.351346612E0,1.019043350E1
1.114618910E0,-3.906283081E-1,-1.546361685E0,1.018385315E1
1.116729221E0,-4.821537733E-1,-1.540977836E0,1.006002426E1
1.118836551E0,-2.428714931E-1,-1.676172256E0,1.006062317E1
1.120940240E0,-4.097708762E-1,-1.249651670E0,9.860821724E0
1.123034245E0,-5.982056633E-2,-1.188634634E0,9.782457352E0
1.125161177E0,-1.674975902E-1,-1.202393413E0,1.041894817E1
1.127269393E0,-2.422732860E-1,-9.774680734E-1,9.442078590E0
1.129377618E0,-1.238285750E-1,-1.092921734E0,9.270393372E0
1.131465814E0,-2.153540403E-1,-1.097707391E0,9.184849739E0
1.133586033E0,-2.261217386E-1,-1.279561877E0,9.057432175E0
1.135702447E0,-7.776673883E-2,-1.806581140E0,9.645467758E0
1.137816003E0,-2.093719840E-1,-2.078166485E0,1.065224838E1
1.139920832E0,-2.620140910E-1,-2.149951220E0,1.065284634E1
1.142027002E0,-2.739782035E-1,-1.968694806E0,9.857831001E0
1.144134841E0,-1.603191197E-1,-1.787438512E0,9.363713264E0
1.146244409E0,-3.702892959E-1,-1.527817249E0,9.232706070E0
1.148354740E0,-3.355933726E-1,-1.527817249E0,9.528818130E0
1.150458541E0,-3.421736360E-1,-1.685145378E0,1.049611664E1
1.152568568E0,-5.868397355E-1,-1.689332843E0,1.038724327E1
1.154677322E0,-8.219345808E-1,-1.439282775E0,1.005105114E1
1.156780206E0,-9.625129104E-1,-9.948160052E-1,8.976674080E0
1.158870773E0,-1.016351461E0,-1.052243710E0,8.810373306E0
1.160990758E0,-9.230313301E-1,-1.702493310E0,1.011625576E1
1.163109431E0,-7.824530005E-1,-1.697707653E0,1.064626598E1
1.165220464E0,-6.035895348E-1,-1.674975872E0,9.847063065E0
1.167319625E0,-3.708875179E-1,-1.757528186E0,9.387641907E0
1.169436843E0,-1.998006850E-1,-1.820937991E0,9.115457535E0
1.171552913E0,-2.691925503E-2,-2.070389748E0,9.566504478E0
1.173652949E0,-3.050848842E-2,-2.275574446E0,9.979267120E0
1.175755284E0,7.357929647E-2,-2.084746838E0,9.451649666E0
1.177849828E0,3.068794906E-1,-2.263011932E0,9.308678627E0
1.179974991E0,4.091726840E-1,-2.440080881E0,9.969695091E0
1.182080287E0,4.283152521E-1,-2.516651154E0,1.003729248E1
1.184184565E0,4.905286431E-1,-2.498106956E0,9.964909554E0
1.186287409E0,6.197410822E-1,-2.445464849E0,9.964311600E0
1.188395981E0,3.864408433E-1,-2.033301115E0,9.822537422E0
1.190508724E0,2.757728100E-1,-1.860419631E0,9.530014038E0
1.192628017E0,2.530409992E-1,-2.008774519E0,9.985248566E0
1.194736018E0,1.292124242E-1,-1.797608018E0,9.936196327E0
1.196842432E0,-5.802594870E-2,-1.710868239E0,9.706484795E0
1.198943558E0,-6.819544733E-2,-1.629512191E0,9.394820213E0
1.201058844E0,-6.101697683E-2,-1.821536183E0,9.000003815E0
1.203166337E0,1.316052526E-1,-2.223530531E0,9.825528145E0
1.205277075E0,2.027917206E-1,-2.717050076E0,1.019761181E1
1.207382462E0,3.451646566E-1,-2.822932482E0,1.002592659E1
1.209488308E0,1.232303679E-1,-2.764906645E0,9.577272415E0
1.211589026E0,8.913264424E-2,-3.028116941E0,9.723235130E0
1.213707893E0,-2.913261652E-1,-2.739183664E0,1.006600666E1
1.215815944E0,-4.779663086E-1,-2.504088879E0,9.801599503E0
1.217927282E0,-6.311069727E-1,-2.359921217E0,9.600004196E0
1.220029730E0,-6.699903607E-1,-2.570489645E0,9.802796364E0
1.222131171E0,-7.064808607E-1,-2.426322222E0,1.006480980E1
1.224248500E0,-4.809573591E-1,-2.312064886E0,1.001515961E1
1.226356929E0,-2.715853751E-1,-2.150549412E0,9.544371605E0
1.228467536E0,-1.573280841E-1,-2.309073925E0,9.478569031E0
1.230573340E0,2.991028363E-3,-2.447857618E0,1.028195858E1
1.232681841E0,1.519442350E-1,-2.347957134E0,1.019462109E1
1.234791082E0,-2.333002165E-2,-2.371885538E0,9.611968994E0
1.236898088E0,-2.291127741E-1,-2.261217356E0,9.501898766E0
1.239006385E0,-2.129612118E-1,-2.097907305E0,9.667601585E0
1.241113960E0,-2.183450609E-1,-1.887937069E0,9.317052841E0
1.243221249E0,3.230310604E-2,-2.299502611E0,1.020897770E1
1.245330003E0,1.800599098E-1,-2.286342144E0,9.964311600E0
1.247439653E0,2.877369225E-1,-2.416152716E0,9.587442398E0
1.249547573E0,4.319044948E-1,-2.474178553E0,9.721440315E0
1.251654447E0,3.272185028E-1,-2.315654039E0,9.758528709E0
1.253761462E0,2.458625287E-1,-2.358126640E0,9.792626381E0
1.255862078E0,2.033899277E-1,-2.262413740E0,9.748957634E0
1.257981066E0,1.172483116E-1,-2.127817631E0,9.638289452E0
1.260088782E0,-9.451649338E-2,-2.088934183E0,9.413962364E0
1.262199572E0,-2.039881349E-1,-2.059622049E0,9.591031075E0
1.264306932E0,-1.495514214E-1,-2.107478619E0,9.978070259E0
1.266420224E0,-3.529413417E-2,-2.194218397E0,9.978668213E0
1.268522956E0,2.512463741E-2,-2.367099762E0,9.674181938E0
1.270630338E0,1.848455518E-1,-2.195414782E0,9.934999466E0
1.272737669E0,2.404786795E-1,-2.392224550E0,9.625727654E0
1.274842293E0,3.661018610E-1,-2.382653236E0,9.940981865E0
1.276939186E0,4.797609448E-1,-2.402393818E0,9.687342644E0
1.279063250E0,3.894318938E-1,-2.454437733E0,9.917651176E0
1.281171608E0,3.134597540E-1,-2.301297188E0,9.849455833E0
1.283283750E0,1.513460279E-1,-2.017747641E0,9.708877563E0
1.285389096E0,3.104687333E-1,-1.779063582E0,9.619745255E0
1.287496020E0,8.494520187E-2,-1.730608940E0,9.572486877E0
1.289604398E0,2.751746029E-2,-1.663609982E0,9.437891006E0
1.291712136E0,-9.212367237E-2,-1.835294962E0,9.640682220E0
1.293820698E0,1.794617064E-2,-2.170290232E0,1.000678444E1
1.295929035E0,2.213360928E-2,-2.299502611E0,1.002233791E1
1.298034738E0,-9.032905847E-2,-2.414956331E0,9.603593826E0
1.300135222E0,7.357929647E-2,-2.649452925E0,1.010189915E1
1.302253172E0,4.905286431E-2,-2.491526604E0,9.870991707E0
1.304360796E0,2.309073806E-1,-2.420340061E0,9.726225853E0
1.306472756E0,2.177468538E-1,-2.377269268E0,9.912267685E0
1.308578550E0,1.597209126E-1,-2.530410051E0,9.985847473E0
1.310686898E0,1.357926875E-1,-2.310270309E0,9.735198975E0
1.312794910E0,2.033899277E-1,-2.061416626E0,9.646664619E0
1.314903207E0,1.333998591E-1,-1.945963025E0,9.942177773E0
1.317011748E0,-9.571290575E-3,-1.739582062E0,9.878767967E0
1.319118610E0,6.281159073E-2,-1.481157184E0,9.751948357E0
1.321219186E0,4.965107143E-2,-1.299302697E0,9.735796928E0
1.323336262E0,-2.213360928E-2,-1.360917926E0,9.923035622E0
1.325444253E0,-1.316052489E-2,-1.428515077E0,9.803992271E0
1.327554930E0,-1.794617064E-2,-1.323230863E0,9.693324089E0
1.329661009E0,-2.273181453E-2,-1.323230863E0,9.659825325E0
1.331769184E0,-1.663011760E-1,-1.413560033E0,9.756733894E0
1.333877950E0,-1.956132501E-1,-1.408774376E0,9.694520950E0
1.335986826E0,-1.328016520E-1,-1.413560033E0,9.814162254E0
1.338094258E0,-6.699903309E-2,-1.596012712E0,9.700503349E0
1.340203185E0,-1.776670814E-1,-1.705484390E0,9.683155060E0
1.342308308E0,-1.956132501E-1,-1.561915040E0,9.791430473E0
1.344411762E0,-2.488535494E-1,-1.470987678E0,9.628718376E0
1.346526691E0,-1.627119333E-1,-1.614557028E0,9.725028992E0
1.348635232E0,1.974078640E-2,-1.667797327E0,9.963713646E0
1.350745452E0,4.307080805E-2,-1.715653777E0,9.777671814E0
1.352850107E0,9.631111473E-2,-1.649253011E0,9.829715729E0
1.354949675E0,5.383851007E-2,-1.423729420E0,9.832108498E0
1.357068288E0,1.076770201E-2,-1.337587833E0,9.698110580E0
1.359179240E0,2.512463741E-2,-1.323230863E0,9.673583984E0
1.361299611E0,-5.623133108E-2,-1.442273855E0,9.866206169E0
1.363393127E0,-1.525424421E-1,-1.518844128E0,9.848259926E0
1.365501138E0,-1.238285750E-1,-1.480558991E0,9.766903877E0
1.367606668E0,-1.052841991E-1,-1.518844128E0,9.656833649E0
1.369718364E0,-9.092725813E-2,-1.615155339E0,9.701101303E0
1.371824392E0,-1.531406492E-1,-1.710269928E0,9.888339996E0
1.373932607E0,-1.722832322E-1,-1.710269928E0,9.826126099E0
1.376043254E0,-2.159522474E-1,-1.671984792E0,9.682557106E0
1.378160248E0,-3.014956415E-1,-1.633101463E0,9.735198975E0
1.380259318E0,-3.828516304E-1,-1.657029629E0,9.793225288E0
1.382367758E0,-4.163511395E-1,-1.666002750E0,9.798010826E0
1.384473348E0,-4.348955154E-1,-1.527219057E0,9.801599503E0
1.386581513E0,-4.438686073E-1,-1.292722464E0,9.809376717E0
1.388679118E0,-3.930211067E-1,-7.710871100E-1,9.861420631E0
1.390800181E0,-1.740778536E-1,-3.409772366E-2,9.805787086E0
1.392908081E0,8.554340899E-2,2.183450609E-1,9.759127617E0
1.395019796E0,4.606183618E-2,6.041877344E-2,9.770493507E0
1.397124797E0,-7.896314561E-2,-3.469592705E-2,9.752547264E0
1.399230561E0,-4.007977992E-2,-3.948157281E-2,9.790832520E0
1.401332103E0,2.691925503E-2,-2.572284266E-2,9.766903877E0
1.403450634E0,2.991028363E-3,-1.076770201E-2,9.766903877E0
1.405558177E0,2.991028363E-3,-2.512463741E-2,9.771689415E0
1.407666952E0,-1.136590727E-2,-2.991028316E-2,9.742975235E0
1.409762859E0,-1.615155302E-2,-2.512463741E-2,9.738189697E0
1.411878022E0,-2.093719877E-2,-3.948157281E-2,9.757332802E0
1.413990733E0,7.178467698E-3,-8.793623000E-2,9.734002113E0
1.416101604E0,3.589234129E-2,-1.118644550E-1,9.767501831E0
1.418208823E0,3.589234129E-2,-1.262213886E-1,9.743574142E0
1.420316113E0,-1.196411345E-2,-1.208375469E-1,9.772287369E0
1.422422151E0,-5.024927482E-2,-1.399801224E-1,9.772886276E0
1.424532380E0,-4.546362907E-2,-1.878365725E-1,9.796813965E0
1.426637014E0,-2.691925503E-2,-2.883351147E-1,9.759725571E0
1.428736970E0,-6.520441920E-2,-3.074777126E-1,9.778867722E0
1.430858328E0,-8.494520187E-2,-3.696911037E-1,9.808777809E0
1.432970980E0,-1.190429255E-1,-4.510470629E-1,9.761520386E0
1.435075674E0,-1.094716340E-1,-5.419743061E-1,9.800403595E0
1.437182862E0,-1.196411327E-1,-6.520441771E-1,9.772886276E0
1.439288240E0,-9.152546525E-2,-7.334001660E-1,9.821340561E0
1.441395733E0,-1.208375469E-1,-8.769695163E-1,9.803992271E0
1.443495709E0,-2.416750938E-1,-9.726824164E-1,9.666405678E0
1.445614564E0,-2.033899277E-1,-1.125823021E0,9.748957634E0
1.447722750E0,-1.950150430E-1,-1.313061476E0,9.664610863E0
1.449833529E0,-1.962114573E-1,-1.480558991E0,9.637691498E0
1.451939414E0,-1.196411327E-1,-1.600200176E0,9.719645500E0
1.454048657E0,-8.673982322E-2,-1.706082582E0,9.682557106E0
1.456155967E0,-3.469592705E-2,-1.773081541E0,9.659226418E0
1.458264112E0,1.854437590E-2,-1.916650891E0,9.908679008E0
1.460372042E0,4.187439755E-2,-1.993819475E0,9.832706451E0
1.462480359E0,4.606183618E-2,-2.070389748E0,9.757332802E0
1.464586153E0,3.170489892E-2,-2.099103689E0,9.781260490E0
1.466686749E0,7.178467698E-3,-2.190030813E0,9.748957634E0
1.468805616E0,-1.256231871E-2,-2.338385820E0,9.750154495E0
1.470914553E0,2.153540403E-2,-2.290529490E0,9.945767403E0
1.473024539E0,1.369891018E-1,-2.233101845E0,9.973284721E0
1.475129294E0,1.465603858E-1,-2.180459738E0,9.930213928E0
1.477229881E0,1.932204217E-1,-2.310270309E0,9.749555588E0
1.479345777E0,1.064806059E-1,-2.396411896E0,9.674181938E0
1.481449080E0,6.400800496E-2,-2.477169752E0,9.976275444E0
1.483564975E0,1.872383654E-1,-2.630908489E0,9.786046028E0
1.485671429E0,1.387837082E-1,-2.578266382E0,9.551549911E0
1.487781801E0,1.962114573E-1,-2.563909531E0,9.622735977E0
1.489887810E0,1.926222295E-1,-2.396411896E0,9.654440880E0
1.491995893E0,9.391828626E-2,-2.103889227E0,9.805189133E0
1.494103986E0,-2.632104978E-2,-2.084746838E0,9.623932838E0
1.496212456E0,2.572284266E-2,-2.146960020E0,9.581459999E0
1.498318189E0,-1.495514158E-2,-1.926222205E0,9.880562782E0
1.500418358E0,3.050848842E-2,-1.743769526E0,1.037587738E1
1.502535872E0,1.483550072E-1,-1.807179332E0,9.931410789E0
1.504645358E0,9.870393574E-2,-1.811964989E0,9.525228500E0
1.506756574E0,4.666004330E-2,-1.869392633E0,9.659825325E0
1.508859684E0,-1.136590727E-2,-1.921436548E0,9.660423279E0
1.510959964E0,1.286142170E-1,-1.888535261E0,9.802796364E0
1.513078261E0,2.201396823E-1,-1.788036704E0,9.916455269E0
1.515186658E0,9.990034252E-2,-1.730608940E0,9.672387123E0
1.517295108E0,5.264209956E-2,-1.691725612E0,9.825528145E0
1.519395216E0,5.264209956E-2,-1.706082582E0,9.844670296E0
1.521519219E0,1.920240223E-1,-1.649253011E0,9.843474388E0
1.523617253E0,1.734796464E-1,-1.687538147E0,1.001097202E1
1.525718143E0,1.884347796E-1,-1.591825247E0,1.006301594E1
1.527824589E0,2.434697002E-1,-1.678565025E0,9.533005714E0
1.529944563E0,1.471585929E-1,-1.706680775E0,9.519247055E0
1.532055038E0,4.725824669E-2,-1.768894196E0,9.739984512E0
1.534163405E0,1.579262912E-1,-1.721037745E0,9.844072342E0
1.536269332E0,2.009970993E-1,-1.711466432E0,9.734002113E0
1.538378513E0,9.032905847E-2,-1.711466432E0,9.571888924E0
1.540485864E0,9.571290575E-3,-1.619940877E0,9.671789169E0
1.542594812E0,1.076770201E-2,-1.648654819E0,9.982855797E0
1.544701908E0,-4.247260094E-2,-1.609771490E0,9.930213928E0
1.546810419E0,5.982056609E-4,-1.634297848E0,9.848857880E0
1.548918461E0,-3.349951655E-2,-1.691725612E0,9.782457352E0
1.551026849E0,-2.931207791E-2,-1.749153376E0,9.663414001E0
1.553132746E0,5.623133108E-2,-1.945963025E0,9.803992271E0
1.555234288E0,-7.357929647E-2,-1.954936147E0,9.637093544E0
1.557351872E0,-1.076770201E-2,-1.988435626E0,9.894919395E0
1.559456344E0,-7.357929647E-2,-2.026720762E0,9.776474953E0
1.561555913E0,3.050848842E-2,-2.180459738E0,9.519247055E0
1.563674759E0,-7.776673418E-3,-2.051247120E0,9.441479683E0
1.565783461E0,3.589233849E-3,-1.916650891E0,9.751350403E0
1.567896519E0,4.965107143E-2,-1.734796405E0,1.026999474E1
1.570001683E0,7.357929647E-2,-1.777867198E0,1.026102161E1
1.572110652E0,1.567298770E-1,-1.878963947E0,9.735796928E0
1.574215051E0,-2.991028363E-3,-1.979462504E0,9.407382011E0
1.576315455E0,-3.469592705E-2,-2.300698996E0,9.028120041E0
1.578433852E0,-1.304088384E-1,-2.190030813E0,8.893523216E0
1.580542262E0,-2.009970993E-1,-1.887338877E0,1.001456070E1
1.582653112E0,-1.639083475E-1,-1.527817249E0,1.049372387E1
1.584758876E0,-1.411765367E-1,-1.403390527E0,1.013898754E1
1.586864914E0,-1.316052526E-1,-1.255633712E0,9.855438232E0
1.588966914E0,-5.024927482E-2,-1.193420291E0,9.887741089E0
1.591083481E0,4.127619043E-2,-1.270588875E0,1.001755238E1
1.593191717E0,5.024927482E-2,-1.332802176E0,9.893723488E0
1.595302088E0,2.871387079E-2,-1.576870084E0,9.632905960E0
1.597403712E0,2.392822653E-1,-1.735394597E0,9.853643417E0
1.599495824E0,-9.212367237E-2,-1.797009826E0,9.602396965E0
1.601614905E0,-3.828516230E-2,-1.825723648E0,1.000857925E1
1.603733282E0,6.580262631E-2,-2.022533417E0,9.876375198E0
1.605846888E0,-6.221338734E-2,-2.271386862E0,9.309874535E0
1.607949753E0,-2.087737769E-1,-2.050648928E0,9.446864128E0
1.610048661E0,-2.213360928E-2,-1.791625977E0,1.037587738E1
1.612165961E0,1.316052489E-2,-2.074577332E0,9.972088814E0
1.614274297E0,1.854437590E-2,-2.252842426E0,9.008378983E0
1.616384781E0,1.603191197E-1,-2.090130568E0,9.627521515E0
1.618490759E0,-6.640082598E-2,-1.844268084E0,1.008993530E1
1.620598863E0,1.387837082E-1,-1.950748682E0,1.007557774E1
1.622706845E0,1.034895778E-1,-1.931606054E0,9.583254814E0
1.624814357E0,4.486542568E-2,-1.663011789E0,1.018325520E1
1.626924149E0,6.759724021E-2,-1.787438512E0,9.969695091E0
1.629031948E0,5.982056609E-4,-1.889133453E0,8.852247238E0
1.631137996E0,-1.914258115E-2,-1.519442320E0,9.546764374E0
1.633238319E0,8.614161611E-2,-1.835893154E0,9.883553505E0
1.635356685E0,1.184447184E-1,-1.869392633E0,9.625727654E0
1.637465216E0,2.416750938E-1,-1.677966833E0,1.030708313E1
1.639576728E0,3.810569942E-1,-1.654038668E0,1.039741230E1
1.641678789E0,4.546363056E-1,-1.765304923E0,9.752547264E0
1.643779477E0,2.099701911E-1,-1.645065546E0,9.451051712E0
1.645897802E0,-2.452643216E-2,-1.586441398E0,9.571290970E0
1.648006242E0,-1.028913707E-1,-1.792224169E0,9.300901413E0
1.650117011E0,1.674975827E-2,-1.835893154E0,9.363115311E0
1.652222613E0,1.603191197E-1,-1.739582062E0,1.043210888E1
1.654328742E0,2.153540403E-1,-2.056032896E0,1.014317513E1
1.656429125E0,7.238288224E-2,-1.941775560E0,9.029315948E0
1.658535357E0,-1.094716340E-1,-1.888535261E0,8.957531929E0
1.660653704E0,-7.477571070E-2,-1.945364833E0,9.373882294E0
1.662759132E0,-5.264209956E-2,-1.701296926E0,9.729815483E0
1.664859351E0,2.434697002E-1,-1.581655741E0,1.072702408E1
1.666980414E0,4.570291340E-1,-1.697707653E0,1.026819992E1
1.669089068E0,5.036891699E-1,-1.540379524E0,9.726225853E0
1.671199888E0,7.280163169E-1,-1.780858278E0,9.818349838E0
1.673306384E0,6.311069727E-1,-1.947757602E0,9.715457916E0
1.675409909E0,2.464607358E-1,-1.894517303E0,9.310472488E0
1.677507769E0,1.226321608E-1,-1.864607096E0,9.501898766E0
1.679629575E0,-1.519442350E-1,-1.600200176E0,9.987641335E0
1.681737963E0,-7.178467698E-3,-1.628913999E0,1.028375340E1
1.683849821E0,-1.112662554E-1,-1.782652855E0,9.564111710E0
1.685954333E0,-2.889333367E-1,-1.652842283E0,9.405587196E0
1.688062578E0,-2.392822653E-1,-1.719243050E0,9.874580383E0
1.690171994E0,-6.699903309E-2,-1.701296926E0,9.892526627E0
1.692277861E0,5.862415582E-2,-1.658226132E0,1.000678444E1
1.694386360E0,1.351944804E-1,-1.706680775E0,1.003549862E1
1.696492032E0,1.124626622E-1,-1.913061738E0,9.406784058E0
1.698595233E0,1.956132501E-1,-1.902892232E0,9.884152412E0
1.700713102E0,1.734796464E-1,-2.295913219E0,9.548559189E0
1.702820819E0,-1.926222295E-1,-2.036890268E0,8.653642654E0
1.704931322E0,-1.507478207E-1,-1.566102386E0,1.023111153E1
1.707038002E0,1.680957973E-1,-1.504487276E0,1.098963642E1
1.709145445E0,1.256231815E-1,-1.725225091E0,1.013599682E1
1.711251382E0,-3.421736360E-1,-1.801795483E0,8.231309891E0
1.713351775E0,-5.395814776E-1,-1.561316729E0,8.784051895E0
1.715470223E0,-5.306084156E-1,-9.326026440E-1,1.048475075E1
1.717578398E0,-2.464607358E-1,-5.018945336E-1,1.149332523E1
1.719686532E0,-1.112662554E-1,-6.370890141E-1,1.071924686E1
1.721784788E0,3.828516230E-2,-1.338186026E0,9.300901413E0
1.723904042E0,-2.327020019E-1,-1.457229018E0,8.858827591E0
1.726011401E0,-3.421736360E-1,-1.767697692E0,9.296713829E0
1.728122089E0,-4.713860750E-1,-1.915454507E0,9.513862610E0
1.730227507E0,-4.331009090E-1,-1.877169371E0,9.494122505E0
1.732335997E0,-2.614158690E-1,-1.499103427E0,1.011625576E1
1.734444538E0,-3.894318938E-1,-1.197009563E0,1.001815033E1
1.736552590E0,-5.156532526E-1,-1.043868899E0,9.510871887E0
1.738661172E0,-4.121637046E-1,-9.906286001E-1,1.006899738E1
1.740770059E0,-3.571287692E-1,-1.115653515E0,9.735198975E0
1.742877461E0,-4.001995921E-1,-1.177866936E0,9.731609344E0
1.744986459E0,-3.882354796E-1,-1.590030670E0,9.630513191E0
1.747095428E0,-5.844469070E-1,-1.737189293E0,9.814162254E0
1.749207285E0,-4.887340367E-1,-1.828714728E0,9.972088814E0
1.751299977E0,-2.925225794E-1,-1.910668850E0,9.929018021E0
1.753416992E0,1.196411345E-2,-2.017747641E0,9.647262573E0
1.755524097E0,5.742774159E-2,-2.080559254E0,9.097511292E0
1.757638854E0,-1.489532143E-1,-1.936391711E0,8.762516975E0
1.759743530E0,-2.626122832E-1,-1.317248821E0,9.546165466E0
1.761851694E0,3.589234129E-2,-9.678967595E-1,1.087537861E1
1.763959197E0,-9.750752151E-2,-7.854440212E-1,1.074497032E1
1.766067412E0,-8.135596663E-2,-9.200403094E-1,1.010070229E1
1.768176391E0,-8.195417374E-2,-1.006181955E0,1.012044334E1
1.770284464E0,-2.159522474E-1,-1.327418327E0,9.321240425E0
1.772393158E0,-1.495514214E-1,-1.106680512E0,1.012164021E1
1.774498686E0,7.298108935E-2,-1.107278705E0,1.060857964E1
1.776595885E0,2.410768867E-1,-1.424327731E0,9.879366875E0
1.778717529E0,9.870393574E-2,-1.549352646E0,9.154939651E0
1.780825327E0,1.794617027E-1,-1.721635938E0,9.146564484E0
1.782937378E0,3.254238665E-1,-1.860419631E0,9.955338478E0
1.785042348E0,2.464607358E-1,-1.956132531E0,9.473783493E0
1.787150410E0,1.573280841E-1,-2.018944025E0,8.761918068E0
1.789258942E0,-1.166501045E-1,-1.581655741E0,9.265607834E0
1.791367890E0,-1.010967568E-1,-1.125823021E0,1.030827999E1
1.793475149E0,1.471585929E-1,-9.104689956E-1,1.099382401E1
1.795583455E0,1.417747438E-1,-1.117448211E0,9.824331284E0
1.797691925E0,-1.387837082E-1,-1.036092162E0,9.107681274E0
1.799801758E0,-1.680957973E-1,-8.769695163E-1,1.001934624E1
1.801908163E0,-1.292124242E-1,-5.838487148E-1,1.102493000E1
1.804016479E0,-2.195414752E-1,-3.637090325E-1,1.086102200E1
1.806124542E0,-3.864408433E-1,-6.376872063E-1,9.009575844E0
1.808230134E0,-2.596212626E-1,-5.467599630E-1,9.428917885E0
1.810326224E0,-4.707878530E-1,-7.322037220E-1,9.574281693E0
1.812450339E0,-1.591227055E-1,-1.231107235E0,1.023769188E1
1.814557434E0,8.913264424E-2,-1.773679733E0,9.333204269E0
1.816669658E0,1.549352705E-1,-2.277967215E0,8.468199730E0
1.818773835E0,4.660021961E-1,-2.384447813E0,8.529814720E0
1.820882030E0,1.704886109E-1,-1.826920033E0,9.367302895E0
1.822989340E0,2.021935135E-1,-1.289133191E0,1.082453156E1
1.825098836E0,1.848455518E-1,-9.349954724E-1,1.077847004E1
1.827207469E0,1.076770201E-1,-6.669993401E-1,1.032203865E1
1.829315827E0,-1.196411322E-3,-6.813562512E-1,9.543174744E0
1.831423708E0,-3.589233849E-3,-8.877372146E-1,9.153144836E0
1.833531862E0,-1.938186288E-1,-6.574280262E-1,9.204590797E0
1.835640087E0,8.315058798E-2,-5.569294691E-1,1.011087227E1
1.837748323E0,4.917250574E-1,-7.974081635E-1,1.077607632E1
1.839856884E0,1.686939895E-1,-7.196413875E-1,1.020299530E1
1.841965913E0,3.158525825E-1,-9.984052777E-1,1.004686451E1
1.844073212E0,5.802595019E-1,-1.272981644E0,9.494122505E0
1.846181398E0,3.990031779E-1,-1.473978758E0,8.708079338E0
1.848289399E0,3.146561682E-1,-1.315454245E0,8.903095245E0
1.850397778E0,2.165504545E-1,-1.645663738E0,8.772686005E0
1.852503847E0,-1.555334684E-2,-1.510469317E0,9.288339615E0
1.854605673E0,-4.366901144E-2,-1.639083505E0,9.528818130E0
1.856722790E0,-3.008974493E-1,-1.475175142E0,9.686145782E0
1.858831880E0,-7.130611539E-1,-1.191625714E0,9.378668785E0
1.860941347E0,-4.456632137E-1,-1.038485050E0,1.019402313E1
1.863047539E0,-4.606183618E-2,-1.111466169E0,1.080000496E1
1.865154451E0,5.736792088E-1,-1.180858016E0,1.017667484E1
1.867261650E0,9.020941257E-1,-1.014556766E0,1.060439205E1
1.869361289E0,8.117650747E-1,-1.287338614E0,9.923633575E0
1.871477744E0,6.263213158E-1,-1.460219979E0,9.242277145E0
1.873585389E0,3.559323549E-1,-1.381855130E0,9.821340561E0
1.875697410E0,5.862415582E-2,-1.337587833E0,9.625727654E0
1.877804445E0,2.374876440E-1,-1.424327731E0,1.026221848E1
1.879915804E0,3.469592929E-1,-1.396211982E0,1.000319481E1
1.882019595E0,1.489532143E-1,-1.237687469E0,9.404989243E0
1.884128338E0,-1.483550072E-1,-1.127019525E0,9.132805824E0
1.886235954E0,-1.375873089E-1,-1.207777262E0,9.534799576E0
1.888343814E0,-1.657029688E-1,-1.083350420E0,9.691530228E0
1.890455132E0,-1.040877849E-1,-8.338986635E-1,1.036331463E1
1.892564090E0,7.537391037E-2,-1.117448211E0,1.013121128E1
1.894671775E0,4.007977992E-2,-1.093519926E0,9.566504478E0
1.896777468E0,-1.453639716E-1,-9.302098155E-1,9.762118340E0
1.898880547E0,-5.922235921E-2,-9.541380405E-1,9.828518867E0
1.900995852E0,-2.769692242E-1,-7.854440212E-1,1.019581699E1
1.903100864E0,-2.787638307E-1,-8.578268886E-1,9.771091461E0
1.905201439E0,-3.152543902E-1,-9.343972206E-1,9.227322578E0
1.907320092E0,-5.754738450E-1,-5.359922647E-1,9.482755661E0
1.909425408E0,-3.218346536E-1,-7.280163169E-1,9.746564865E0
1.911530938E0,-1.872383654E-1,-7.525427341E-1,9.832108498E0
1.913645217E0,-2.943171859E-1,-6.652047038E-1,1.052483082E1
1.915753685E0,-2.416750938E-1,-6.370890141E-1,1.046201897E1
1.917861291E0,-5.682953820E-2,-8.003991842E-1,1.019521904E1
1.919958265E0,-4.187439755E-2,-1.208375454E0,9.558728218E0
1.922078321E0,-6.568298340E-1,-1.331605792E0,8.018348694E0
1.924186556E0,-8.775677085E-1,-1.302293777E0,7.856235027E0
1.926294842E0,-9.517452121E-1,-8.410771489E-1,9.162117958E0
1.928395246E0,-8.602197170E-1,-4.815555513E-1,1.021436119E1
1.930514683E0,-7.740781307E-1,-2.237289101E-1,9.829116821E0
1.932613987E0,-3.649054468E-1,5.982056726E-3,1.135513973E1
1.934730207E0,-2.859423161E-1,6.400800496E-2,1.190907860E1
1.936835941E0,-1.668993831E-1,-4.319044948E-1,9.790832520E0
1.938946242E0,-2.955136001E-1,-1.031306505E0,8.176275253E0
1.941049046E0,-2.075773627E-1,-9.068797827E-1,8.562117577E0
1.943146275E0,-1.118644550E-1,-8.153542876E-1,9.641280174E0
1.945268121E0,1.525424421E-1,-6.867401004E-1,9.619745255E0
1.947378575E0,-3.828516230E-2,-5.760720372E-1,9.738788605E0
1.949486729E0,9.870393574E-2,-7.836493850E-2,9.915258408E0
1.951581975E0,1.190429255E-1,7.956135273E-2,1.003310490E1
1.953691278E0,2.135594189E-1,4.295116663E-1,1.047876835E1
1.955810246E0,2.817548811E-1,5.826523304E-1,1.055832958E1
1.957918736E0,5.132604837E-1,3.714857101E-1,1.118584728E1
1.960018244E0,2.889333367E-1,5.922235921E-2,9.334999084E0
1.962122126E0,-3.050848842E-2,-4.546362907E-2,8.601000786E0
1.964230503E0,2.560320199E-1,-5.982056633E-2,9.637093544E0
1.966340804E0,3.397808075E-1,2.321037948E-1,9.915857315E0
1.968452112E0,3.499503136E-1,5.766702294E-1,9.583254814E0
1.970570449E0,3.230310678E-1,7.537391186E-1,9.853643417E0
1.972678614E0,5.784648657E-1,7.968099117E-1,1.024905777E1
1.974784062E0,5.485545993E-1,3.026920557E-1,9.384052277E0
1.976881057E0,1.046859920E-1,6.538388133E-1,9.296713829E0
1.979000788E0,1.088734269E-1,1.076770186E0,1.112303638E1
1.981109105E0,3.625126183E-1,6.299105883E-1,1.037109184E1
1.983220179E0,1.316052526E-1,5.192425251E-1,8.967700958E0
1.985326807E0,9.212367237E-2,1.495514214E-1,7.857431412E0
1.987438919E0,2.003988922E-1,1.692921966E-1,8.554939270E0
1.989542821E0,-5.204389244E-2,9.870393574E-2,9.005986214E0
1.991653468E0,2.452643216E-2,4.007977843E-1,9.968499184E0
1.993758520E0,2.249253243E-1,5.826523304E-1,1.070668507E1
1.995866917E0,2.350948304E-1,9.942178130E-1,1.045424175E1
1.997974339E0,3.583251834E-1,9.601200819E-1,1.006241703E1
2.000083135E0,2.769692242E-1,1.031904817E0,1.012403297E1
2.002191452E0,3.768695518E-2,1.162313581E0,9.903892517E0
2.004299841E0,-1.489532143E-1,1.022931695E0,8.882756233E0
2.006408148E0,-2.715853751E-1,1.138983607E0,9.331410408E0
2.008516699E0,-1.405783296E-1,1.466202021E0,1.178465176E1
2.010625362E0,-1.908276081E-1,1.333400369E0,1.265623760E1
2.012731410E0,-2.069791555E-1,7.657032609E-1,1.024307537E1
2.014838414E0,-6.257231236E-1,3.726821244E-1,7.757531166E0
2.016937281E0,-6.699903607E-1,4.109672904E-1,7.437490940E0
2.019047115E0,-5.736792088E-1,1.998006850E-1,7.850253105E0
2.021153032E0,-4.791627228E-1,3.631108403E-1,8.474181175E0
2.023263912E0,-9.930214286E-2,5.114658475E-1,9.948758125E0
2.025372432E0,-8.374879137E-3,1.365105271E0,1.144128132E1
2.027484380E0,2.195414752E-1,1.627717614E0,1.181515980E1
2.029601813E0,-2.225325108E-1,1.666002750E0,1.010070229E1
2.031709459E0,-1.070788130E-1,1.506880045E0,9.317651749E0
2.033817532E0,-2.183450609E-1,1.503290772E0,1.025025368E1
2.035923458E0,-2.195414752E-1,1.417149186E0,1.000259686E1
2.038031785E0,-2.721835673E-1,7.453642488E-1,8.273782730E0
2.040140194E0,-3.762713671E-1,6.203392744E-1,7.558328629E0
2.042249091E0,-5.066801906E-1,8.225327730E-1,8.231309891E0
2.044357489E0,-3.272185028E-1,1.244866014E0,9.583852768E0
2.046464738E0,-1.764706671E-1,1.364507079E0,1.008395290E1
2.048572995E0,-1.118644550E-1,1.752144337E0,1.020000458E1
2.050681088E0,3.296113312E-1,2.057827473E0,1.125643635E1
2.052789456E0,2.458625287E-1,2.259422779E0,1.173739338E1
2.054897904E0,3.834498227E-1,2.498106956E0,1.110867882E1
2.057006405E0,8.195417374E-2,2.210968018E0,1.017547798E1
2.059114651E0,1.914258115E-2,1.966302037E0,9.202795982E0
2.061223965E0,6.640082598E-2,1.476969719E0,8.365905762E0
2.063328081E0,-3.302095234E-1,1.774876237E0,8.206783295E0
2.065428981E0,-3.158525825E-1,1.981855392E0,9.165707588E0
2.067546820E0,-2.967100143E-1,2.465803623E0,9.892526627E0
2.069655158E0,-2.865405083E-1,2.542374134E0,9.901499748E0
2.071764595E0,-1.411765367E-1,2.303091764E0,1.057208824E1
2.073870450E0,2.291127741E-1,2.335394859E0,1.098185921E1
2.075979377E0,1.226321608E-1,2.076371908E0,9.708279610E0
2.078089953E0,-4.007977992E-2,2.407179594E0,9.442676544E0
2.080197202E0,-2.362912297E-1,2.398206472E0,9.424132347E0
2.082306180E0,-1.830509305E-1,2.411366940E0,8.257631302E0
2.084415280E0,-2.685943544E-1,2.819343328E0,9.257830620E0
2.086531095E0,-2.811566591E-1,3.156133175E0,1.061216831E1
2.088631559E0,-5.341976285E-1,3.382254839E0,1.049671459E1
2.090746407E0,-4.396811724E-1,3.391227961E0,1.020897770E1
2.092843961E0,-3.170489967E-1,3.122035265E0,9.948160172E0
2.094955502E0,-2.560320199E-1,2.742773056E0,8.871390343E0
2.097060616E0,-3.894318938E-1,2.748156786E0,9.005986214E0
2.099166888E0,-2.123630047E-1,2.560918331E0,9.193224907E0
2.101262785E0,1.076770201E-2,2.660818815E0,9.856036186E0
2.103387368E0,1.794616925E-3,2.824128866E0,9.777671814E0
2.105495776E0,-2.979064286E-1,3.212962627E0,9.904491425E0
2.107606076E0,-7.411768436E-1,3.650250912E0,9.825528145E0
2.109704282E0,-8.650053740E-1,3.990629911E0,9.708279610E0
2.111821400E0,-7.758727670E-1,4.244269371E0,1.007318497E1
2.113928627E0,-6.257231236E-1,4.277768612E0,1.050748253E1
2.116038949E0,-8.231309652E-1,4.283152580E0,1.018325520E1
2.118142363E0,-9.188438654E-1,4.379463673E0,1.019222832E1
2.120243142E0,-8.171489239E-1,4.153341770E0,9.505488396E0
2.122361724E0,-1.006181955E0,4.210769653E0,8.798408508E0
2.124469826E0,-1.001396298E0,4.191627026E0,8.779266357E0
2.126580900E0,-8.165507317E-1,4.258625984E0,9.533005714E0
2.128687345E0,-8.961120844E-1,4.426722050E0,9.833304405E0
2.130792082E0,-8.338986635E-1,4.507479668E0,9.650253296E0
2.132892811E0,-6.167500615E-1,4.603192329E0,1.001695347E1
2.135010934E0,-3.972085714E-1,4.415356159E0,1.000319481E1
2.137119363E0,-3.206382394E-1,4.462614059E0,9.854242325E0
2.139227629E0,-3.248256743E-1,4.530211449E0,9.915857315E0
2.141321461E0,-5.096712112E-1,4.444069862E0,9.363115311E0
2.143427438E0,-7.357929349E-1,4.454239368E0,9.096315384E0
2.145552275E0,-7.537391186E-1,4.478167534E0,9.296713829E0
2.147663421E0,-7.417750359E-1,4.799404144E0,9.695717812E0
2.149774047E0,-6.281159520E-1,5.134399414E0,1.012223816E1
2.151872090E0,-4.785645306E-1,5.325825214E0,1.017727280E1
2.153962909E0,-3.445664644E-1,5.487938881E0,1.000738239E1
2.156080504E0,-3.170489967E-1,5.453841209E0,9.672985077E0
2.158189361E0,-2.189432681E-1,5.342574596E0,9.153144836E0
2.160302571E0,-8.913264424E-2,5.481358528E0,9.089137077E0
2.162407399E0,-9.810572863E-2,5.409573555E0,9.376275063E0
2.164511555E0,-2.991028316E-2,5.414359570E0,9.715457916E0
2.166637837E0,1.405783296E-1,5.572285652E0,1.021077251E1
2.168745310E0,1.776670814E-1,5.447260857E0,1.004925728E1
2.170855671E0,2.476571500E-1,5.303691387E0,9.787242889E0
2.172957397E0,2.745763958E-1,5.183452129E0,9.448657990E0
2.175059814E0,2.039881349E-1,5.355735302E0,9.524032593E0
2.177176300E0,6.699903309E-2,5.457430363E0,9.910472870E0
2.179285360E0,2.452643216E-2,5.472385406E0,1.010668468E1
2.181394511E0,1.471585929E-1,5.231906891E0,9.807581902E0
2.183500865E0,2.841476798E-1,5.121238708E0,9.473184586E0
2.185611561E0,5.503492057E-2,5.126622677E0,9.689137459E0
2.187728413E0,6.520441920E-2,5.021936417E0,9.976874352E0
2.189825501E0,-7.896314561E-2,5.017150879E0,9.829715729E0
2.191933584E0,-2.829512656E-1,4.998008251E0,9.108877182E0
2.194039459E0,-2.255235314E-1,5.045864582E0,9.007781029E0
2.196149464E0,-3.188436031E-1,5.194818020E0,9.465408325E0
2.198251475E0,-2.494517565E-1,5.204987526E0,1.006720352E1
2.200366425E0,-3.158525825E-1,5.210371494E0,1.023948669E1
2.202472972E0,-4.223332107E-1,5.200799942E0,1.006301594E1
2.204583740E0,-2.805584669E-1,5.022534847E0,9.691530228E0
2.206689260E0,-1.435693651E-1,4.907081127E0,9.428917885E0
2.208790253E0,-2.051845491E-1,4.917250633E0,9.506086349E0
2.210908610E0,-2.566302419E-1,4.998606682E0,9.801599503E0
2.213017090E0,-2.279163599E-1,4.945964336E0,9.821340561E0
2.215127116E0,-1.842473447E-1,4.922036171E0,9.921240807E0
2.217233734E0,-7.537391037E-2,4.763511658E0,9.879366875E0
2.219336284E0,-3.409772366E-2,4.561916351E0,9.617950439E0
2.221431814E0,-6.759724021E-2,4.519443989E0,9.671191216E0
2.223557659E0,-6.281159073E-2,4.462016106E0,9.734002113E0
2.225665792E0,-4.845465720E-2,4.414159775E0,9.825528145E0
2.227778606E0,-4.366901144E-2,4.327419758E0,9.826126099E0
2.229884442E0,4.666004330E-2,4.250849247E0,9.807581902E0
2.231995739E0,2.087737769E-1,4.149752617E0,9.716654778E0
2.234098634E0,4.414757788E-1,3.775275946E0,9.628718376E0
2.236206696E0,5.455635786E-1,2.276172638E0,9.842875481E0
2.238313844E0,2.219343036E-1,6.299105883E-1,9.902696609E0
2.240421032E0,-1.800599098E-1,-1.016949639E-1,9.571888924E0
2.242522280E0,-2.823530734E-1,-3.020938635E-1,9.478569031E0
2.244640442E0,-1.758724600E-1,-2.261217386E-1,9.687940598E0
2.246749248E0,-2.991028316E-2,3.708875179E-2,9.904491425E0
2.248858878E0,7.238288224E-2,3.481557071E-1,9.920642853E0
2.250964835E0,2.093719877E-2,6.448656917E-1,9.894321442E0
2.253072604E0,-3.589234129E-2,8.608179688E-1,9.878170013E0
2.255181449E0,-1.495514214E-1,1.081555843E0,9.862018585E0
2.257289420E0,-2.255235314E-1,1.205982566E0,9.889535904E0
2.259398795E0,-3.062812984E-1,1.350150228E0,9.860223770E0
2.261510022E0,-4.492524564E-1,1.546959877E0,9.848857880E0
2.263611381E0,-4.965106845E-1,1.729412556E0,9.857233047E0
2.265712068E0,-5.341976285E-1,1.944766641E0,9.783653259E0
2.267829602E0,-5.521438122E-1,2.150549412E0,9.729216576E0
2.269938926E0,-5.042873621E-1,2.351546526E0,9.607781410E0
2.272049543E0,-3.984049559E-1,2.465803623E0,9.486345291E0
2.274153616E0,-2.644068897E-1,2.465205431E0,9.471389771E0
2.276256502E0,-1.357926875E-1,2.426322222E0,9.394820213E0
2.278372113E0,-1.495514158E-2,2.344966173E0,9.691530228E0
2.280480888E0,-5.802594870E-2,2.263610125E0,9.821938515E0
2.282590284E0,-1.962114573E-1,2.446661234E0,9.839286804E0
2.284693463E0,-5.144568533E-2,2.541775942E0,9.948160172E0
2.286788149E0,-1.316052489E-2,2.584846735E0,9.899705887E0
2.288913200E0,1.794616925E-3,2.737987280E0,9.888339996E0
2.291021100E0,2.452643216E-2,2.746960402E0,9.630513191E0
2.293133619E0,-2.691925503E-2,2.862414122E0,9.763314247E0
2.295235354E0,-5.563312769E-2,2.924627542E0,9.729216576E0
2.297336713E0,7.896314561E-2,3.029313564E0,9.704092026E0
2.299452182E0,1.208375469E-1,2.919243574E0,9.527621269E0
2.301553846E0,3.984049559E-1,2.760120869E0,9.667003632E0
2.303673099E0,4.618147612E-1,2.760120869E0,9.881759644E0
2.305779126E0,4.253242314E-1,2.880360365E0,1.022512913E1
2.307889478E0,2.291127741E-1,3.177668571E0,9.883553505E0
2.309995547E0,8.913264424E-2,3.335594654E0,9.447462082E0
2.312103875E0,-3.230310604E-2,3.220739365E0,9.147761345E0
2.314213056E0,-6.161518395E-2,2.967100143E0,9.274580956E0
2.316320254E0,-1.286142170E-1,2.718844652E0,9.659825325E0
2.318425937E0,-1.136590764E-1,2.642274380E0,9.875777245E0
2.320526228E0,-1.088734269E-1,2.570489645E0,9.972088814E0
2.322645003E0,-1.322034448E-1,2.657229662E0,1.001396275E1
2.324753360E0,-1.561316848E-1,2.623729944E0,1.008156013E1
2.326864180E0,-2.673979402E-1,2.815155745E0,9.616155624E0
2.328968062E0,-1.573280841E-1,2.757129908E0,9.511469841E0
2.331069655E0,-1.764706671E-1,2.709273338E0,9.678967476E0
2.333184665E0,-7.956135273E-2,2.771486759E0,9.798010826E0
2.335293246E0,-9.391828626E-2,2.785843849E0,9.778867722E0
2.337405012E0,-4.725824669E-2,2.570489645E0,9.814162254E0
2.339508864E0,-1.010967568E-1,2.532204628E0,9.556335449E0
2.341609593E0,7.058826834E-2,2.296511650E0,9.619745255E0
2.343727360E0,8.374879137E-3,2.316252232E0,9.681958199E0
2.345838342E0,-7.298108935E-2,2.354537487E0,9.529416084E0
2.347954380E0,8.554340899E-2,2.349153519E0,9.643673897E0
2.350042464E0,2.871387079E-2,2.282752752E0,1.002712345E1
2.352159377E0,1.531406492E-1,2.114656925E0,1.016650486E1
2.354255792E0,1.423729509E-1,2.042872429E0,9.937990189E0
2.356379398E0,3.708875179E-2,2.301895380E0,9.692128181E0
2.358484592E0,1.764706671E-1,2.282154560E0,9.801599503E0
2.360595240E0,2.207378894E-1,2.373081923E0,9.929615974E0
2.362699946E0,2.267199457E-1,2.583650351E0,1.006660461E1
2.364803328E0,-5.682953820E-2,2.857030153E0,9.443274498E0
2.366918410E0,-1.435693651E-1,2.967698336E0,9.203991890E0
2.369026503E0,-2.147558331E-1,3.025125980E0,9.323035240E0
2.371136408E0,-3.296113312E-1,2.853441000E0,9.554540634E0
2.373242213E0,-1.663011760E-1,2.690130949E0,9.823135376E0
2.375348698E0,-1.609173268E-1,2.729014158E0,9.903892517E0
2.377459487E0,-1.806581169E-1,2.633301258E0,9.895518303E0
2.379567906E0,-3.589233849E-3,2.532204628E0,9.957731247E0
2.381677567E0,-1.770688742E-1,2.498705149E0,9.853643417E0
2.383784012E0,-2.494517565E-1,2.675773859E0,9.436096191E0
2.385891677E0,-3.445664644E-1,2.757728100E0,9.469595909E0
2.388000503E0,-3.966103494E-1,2.710469961E0,9.661021233E0
2.390108617E0,-3.828516304E-1,2.595614433E0,9.719645500E0
2.392215663E0,-3.020938635E-1,2.374876499E0,9.731011391E0
2.394323888E0,-2.685943544E-1,2.360519648E0,9.888937950E0
2.396430456E0,-7.178468257E-2,2.460419893E0,9.757930756E0
2.398533340E0,-2.392822690E-2,2.426322222E0,9.858428955E0
2.400650538E0,3.948157281E-2,2.598605394E0,9.890133858E0
2.402758378E0,1.740778536E-1,2.846860647E0,9.681360245E0
2.404868677E0,2.931207716E-1,2.913261652E0,9.484550476E0
2.406972244E0,6.879365444E-2,2.928814888E0,9.628718376E0
2.409073024E0,3.469592705E-2,3.014956474E0,9.417551994E0
2.411191493E0,1.160518974E-1,2.991028309E0,9.494122505E0
2.413300044E0,1.890329868E-1,2.913859844E0,9.762118340E0
2.415411412E0,9.451649338E-2,2.809772015E0,1.034177971E1
2.417513830E0,9.930214286E-2,2.934198856E0,1.018804073E1
2.419615668E0,-9.511470050E-2,3.235096216E0,9.052646637E0
2.421732244E0,-1.316052489E-2,3.144168854E0,9.244669914E0
2.423840857E0,8.973085321E-3,3.020340443E0,1.013958549E1
2.425951268E0,5.623133108E-2,2.967698336E0,1.013479996E1
2.428060258E0,-1.453639716E-1,3.126222849E0,9.833304405E0
2.430177272E0,-2.560320199E-1,3.140579700E0,9.671191216E0
2.432274858E0,-2.039881349E-1,3.140579700E0,9.556335449E0
2.434382014E0,-4.289134443E-1,3.251247883E0,9.412766457E0
2.436487402E0,-4.534398913E-1,2.968894720E0,9.649655342E0
2.438598364E0,-3.224328458E-1,2.691327333E0,1.029212856E1
2.440702826E0,-6.580262631E-2,2.292922258E0,1.033340454E1
2.442799414E0,1.710868180E-1,1.851446509E0,1.013061333E1
2.444923580E0,2.015953064E-1,2.416152716E0,9.896116257E0
2.447031938E0,1.579262912E-1,2.980858803E0,9.064012527E0
2.449145087E0,5.982056726E-3,2.903690338E0,8.381459236E0
2.451243262E0,-7.836493850E-2,2.617748022E0,9.206983566E0
2.453337541E0,-1.154536903E-1,2.718844652E0,9.382855415E0
2.455464097E0,-2.177468538E-1,2.255833626E0,1.067797089E1
2.457572740E0,-2.057827413E-1,2.475973129E0,1.111585712E1
2.459685258E0,-2.949153781E-1,3.064009428E0,9.595218658E0
2.461787614E0,-4.097708762E-1,3.026322365E0,9.610772133E0
2.463896105E0,-4.857429862E-1,3.413959742E0,9.315258980E0
2.466005530E0,-4.043870270E-1,2.983251572E0,9.859625816E0
2.468114336E0,-3.349951804E-1,3.308675528E0,1.003310490E1
2.470222480E0,-6.023930907E-1,3.428316593E0,8.876175880E0
2.472326433E0,-7.076773047E-1,3.156133175E0,9.280562401E0
2.474422736E0,-7.980063558E-1,2.673979282E0,1.006959629E1
2.476547024E0,-6.005984545E-1,2.702095032E0,1.024546814E1
2.478655260E0,-5.006981492E-1,2.677568436E0,1.012582684E1
2.480767656E0,-3.523431420E-1,2.839682341E0,9.879964828E0
2.482872586E0,-1.238285750E-1,2.493919373E0,9.882357597E0
2.484977637E0,1.621137410E-1,2.521436930E0,9.483952522E0
2.487079160E0,8.973085135E-2,2.598007202E0,9.315856934E0
2.489194282E0,2.129612118E-1,2.587837696E0,8.995218277E0
2.491296883E0,5.395814776E-1,2.333002090E0,9.450452805E0
2.493415159E0,5.551348329E-1,2.285743713E0,9.833304405E0
2.495518613E0,2.991028428E-1,2.481955290E0,9.019744873E0
2.497621284E0,1.896311939E-1,2.472982168E0,9.221340179E0
2.499738737E0,1.477568001E-1,2.550150633E0,9.468997002E0
2.501845884E0,2.434697002E-1,2.200798512E0,9.859625816E0
2.503956825E0,2.123630047E-1,1.804188251E0,1.091964626E1
2.506060615E0,2.458625287E-1,1.551745534E0,1.247557926E1
2.508164528E0,1.423729509E-1,2.201995134E0,1.097827053E1
2.510279020E0,3.433700502E-1,2.759522676E0,9.069993973E0
2.512387043E0,2.925225794E-1,2.859423161E0,8.170292854E0
2.514497180E0,2.506481707E-1,2.773879766E0,8.606385231E0
2.516604673E0,5.682953820E-2,2.846860647E0,9.074779510E0
2.518711962E0,3.367897868E-1,2.373081923E0,1.026819992E1
2.520817706E0,5.138586760E-1,2.735594511E0,9.800403595E0
2.522917906E0,9.152546525E-2,2.904288530E0,9.332008362E0
2.525033293E0,-6.161518395E-2,2.814557552E0,9.519845009E0
2.527132474E0,-2.021935135E-1,2.733201742E0,9.157930374E0
2.529243112E0,-9.571290761E-2,2.216351986E0,1.000379372E1
2.531351673E0,-2.356930375E-1,1.977667928E0,1.004028416E1
2.533473448E0,-1.986042857E-1,1.637288928E0,1.023470020E1
2.535580422E0,-2.703889608E-1,1.613958836E0,1.027777100E1
2.537688688E0,1.603191197E-1,1.530808330E0,1.022453117E1
2.539794005E0,2.321037948E-1,1.869990945E0,9.833903313E0
2.541902485E0,2.033899277E-1,2.458625317E0,9.058628082E0
2.544010893E0,7.357929647E-2,2.927618504E0,8.476573944E0
2.546119516E0,1.322034448E-1,2.440080881E0,9.255437851E0
2.548227629E0,2.021935135E-1,2.118844509E0,9.148359299E0
2.550337197E0,1.501496136E-1,1.984846354E0,9.498309135E0
2.552446166E0,7.178468257E-2,1.478764415E0,1.089930725E1
2.554553098E0,2.452643216E-2,1.235294700E0,1.133240795E1
2.556660033E0,-1.812563092E-1,1.335793257E0,1.007019424E1
2.558768066E0,-2.344966233E-1,1.694118381E0,9.503094673E0
2.560876566E0,-4.761717021E-1,2.179263115E0,9.628120422E0
2.562982513E0,-4.983053207E-1,2.126621008E0,1.012104130E1
2.565083586E0,-3.756731451E-1,2.538784742E0,1.039382362E1
2.567202554E0,-6.717849374E-1,2.965305567E0,1.018086243E1
2.569309793E0,-5.180460811E-1,3.242274761E0,9.948160172E0
2.571420511E0,-5.916253924E-1,3.538984776E0,9.056833267E0
2.573523569E0,-4.085744619E-1,3.097508907E0,8.639286041E0
2.575624643E0,-2.303091735E-1,2.598007202E0,8.294719696E0
2.577742777E0,7.477571070E-2,1.554138303E0,9.192028046E0
2.579850117E0,3.583251834E-1,1.051047325E0,9.984650612E0
2.581957998E0,3.236292601E-1,9.457631707E-1,9.751350403E0
2.584065164E0,2.919243574E-1,4.295116663E-1,1.083709335E1
2.586167175E0,3.302095234E-1,7.351947427E-1,1.048475075E1
2.588284983E0,1.896311939E-1,1.070189953E0,9.707681656E0
2.590392262E0,-8.973085321E-3,1.558325768E0,8.551948547E0
2.592502604E0,-5.682953820E-2,1.573280931E0,8.566305161E0
2.594608673E0,-3.409772366E-2,1.186241865E0,9.960722923E0
2.596716868E0,-2.392822690E-2,1.398006678E0,1.106321526E1
2.598825694E0,5.563312769E-2,1.722832322E0,1.022333431E1
2.600934407E0,-1.764706671E-1,1.942971945E0,9.361918449E0
2.603041717E0,-2.135594189E-1,2.115853310E0,9.403194427E0
2.605149912E0,-2.500499785E-1,1.910668850E0,1.022273636E1
2.607258046E0,-4.199403822E-1,1.907079697E0,1.092622662E1
2.609364573E0,-2.901297510E-1,1.981855392E0,9.677172661E0
2.611466940E0,1.154536903E-1,1.664208174E0,9.631111145E0
2.613582968E0,1.716850251E-1,1.305284739E0,9.782457352E0
2.615691477E0,3.960121572E-1,1.347159147E0,9.503693581E0
2.617799937E0,5.958128572E-1,9.110672474E-1,9.631111145E0
2.619897726E0,3.822534084E-1,1.084546804E0,9.998409271E0
2.622016979E0,3.032902777E-1,1.399801254E0,8.896514893E0
2.624123922E0,4.815555513E-1,1.068395257E0,8.387441635E0
2.626234986E0,4.372883439E-1,4.235295951E-1,1.012403297E1
2.628339367E0,7.537391186E-1,-1.196411345E-2,1.190489101E1
2.630444743E0,5.581258535E-1,2.464607358E-1,1.062712383E1
2.632557384E0,4.073780477E-1,4.331009090E-1,9.794421196E0
2.634666413E0,5.515456200E-1,5.509474277E-1,8.539983749E0
2.636774862E0,3.116651475E-1,6.759724021E-1,8.305487633E0
2.638881135E0,4.582255483E-1,4.420739710E-1,9.344570160E0
2.640981202E0,3.170489967E-1,3.523431420E-1,1.009172916E1
2.643081656E0,-2.189432681E-1,5.359922647E-1,9.967901230E0
2.645206869E0,-2.213360965E-1,2.338984162E-1,9.760323524E0
2.647316010E0,5.802594870E-2,1.710868180E-1,1.020419216E1
2.649426454E0,-4.905286431E-2,3.433700502E-1,9.491130829E0
2.651523032E0,-1.674975902E-1,3.535395563E-1,9.873384476E0
2.653619071E0,-4.067798331E-2,3.726821244E-1,1.047517967E1
2.655738078E0,7.537391037E-2,7.411768436E-1,1.027059269E1
2.657857057E0,-8.135596663E-2,9.272187948E-1,9.083752632E0
2.659968813E0,-7.238288224E-2,6.209374666E-1,9.340383530E0
2.662073692E0,-7.597211748E-2,6.215356588E-1,9.736993790E0
2.664176068E0,-6.999006122E-2,3.296113312E-1,1.031785107E1
2.666289358E0,-1.758724600E-1,4.498506486E-1,9.973284721E0
2.668398489E0,-8.973085135E-2,6.789634228E-1,9.808179855E0
2.670506767E0,-2.303091735E-1,3.822534084E-1,9.687342644E0
2.672613049E0,-2.015953064E-1,2.470589429E-1,8.651249886E0
2.674718894E0,-6.699903309E-2,-1.022931710E-1,9.150752068E0
2.676830466E0,-2.000998020E0,6.879365444E-2,1.051466084E1
2.678938468E0,-4.003790379E0,-1.256231815E-1,9.271589279E0
2.681047579E0,-1.819741607E0,-2.907279432E-1,1.065583706E1
2.683155235E0,-4.223332107E-1,-3.774677813E-1,1.043629551E1
2.685264254E0,2.237887383E0,-6.598208547E-1,1.135095215E1
2.687371686E0,2.031506538E0,-4.737788737E-1,9.715457916E0
2.689478427E0,1.658226132E0,-4.588237405E-1,8.564510345E0
2.691578107E0,1.200000525E0,-8.488538265E-1,9.373284340E0
2.693696332E0,5.958128572E-1,-5.826523304E-1,1.015214825E1
2.695807253E0,3.086741269E-1,-2.033899277E-1,9.857831001E0
2.697927167E0,-5.724828243E-1,3.834498227E-1,9.090931892E0
2.700021436E0,-2.444866419E0,5.473581553E-1,7.887341499E0
2.702130171E0,-2.685943544E-1,-4.606183469E-1,9.442078590E0
2.704234489E0,-2.456232548E0,-1.674975827E-2,9.245268822E0
2.706343183E0,6.299105883E-1,-1.252044439E0,1.116670513E1
2.708443840E0,-5.910272002E-1,-1.091127157E0,9.769296646E0
2.710561933E0,3.493520916E-1,-1.601994753E0,9.627521515E0
2.712668827E0,1.342373490E0,-2.203789711E0,1.066660500E1
2.714780062E0,8.745766878E-1,-1.613360643E0,1.035673428E1
2.716887454E0,1.944168359E-1,-6.011967063E-1,9.174081802E0
2.718996564E0,-2.595614433E0,1.176072359E0,8.943174362E0
2.721101424E0,-1.495514158E-2,-3.744767308E-1,1.046321487E1
2.723201684E0,-1.256231815E-1,1.668993831E-1,9.746564865E0
2.725319685E0,-7.477570772E-1,-1.968096644E-1,7.825726509E0
2.727426313E0,1.310070455E-1,-1.448854089E0,8.708678246E0
2.729528894E0,1.806581169E-1,-2.036890268E0,9.832706451E0
2.731634728E0,3.517449200E-1,-2.124228239E0,9.641879082E0
2.733751112E0,6.861419082E-1,-2.785843849E0,1.014377308E1
2.735853030E0,7.040880919E-1,-3.177070379E0,1.160040379E1
2.737959933E0,6.035895348E-1,-2.851646423E0,1.124447155E1
2.740066348E0,6.490531564E-1,-2.589034081E0,1.024726295E1
2.742179722E0,6.221339107E-1,-2.100898266E0,1.007079220E1
2.744298292E0,2.356930375E-1,-1.194616675E0,9.489934921E0
2.746405195E0,2.715853751E-1,-8.608179688E-1,8.497511864E0
2.748512923E0,3.367897868E-1,-1.210768223E0,8.347361565E0
2.750618819E0,3.116651475E-1,-1.573280931E0,9.751350403E0
2.752726994E0,4.600201547E-1,-1.712662816E0,9.929018021E0
2.754835808E0,3.768695593E-1,-1.727019787E0,9.408578873E0
2.756944533E0,1.824527234E-1,-1.701895118E0,9.987641335E0
2.759051996E0,1.854437590E-2,-1.762313843E0,1.093041420E1
2.761157526E0,-3.828516230E-2,-1.533799291E0,9.632905960E0
2.763257959E0,-6.520441920E-2,-1.494915962E0,1.000080204E1
2.765376783E0,-2.386840582E-1,-1.225723386E0,1.069651508E1
2.767485132E0,-4.007977992E-2,-1.514058471E0,1.037827015E1
2.769596664E0,1.758724600E-1,-1.621137381E0,9.374481201E0
2.771701227E0,9.451649338E-2,-1.606182218E0,9.418149948E0
2.773809615E0,2.871387079E-2,-1.605584025E0,9.614361763E0
2.775917545E0,-1.794616925E-3,-1.529611826E0,9.107083321E0
2.778026046E0,-1.579262912E-1,-1.764108539E0,8.727222443E0
2.780134028E0,1.232303679E-1,-2.678765059E0,9.394820213E0
2.782240931E0,3.182454109E-1,-3.349951744E0,9.902098656E0
2.784348749E0,5.724828243E-1,-3.527618885E0,1.010847950E1
2.786455500E0,3.433700502E-1,-3.473780155E0,1.024247742E1
2.788567713E0,1.746760458E-1,-3.458226919E0,1.119900799E1
2.790675919E0,2.871387079E-2,-2.782254457E0,1.105484104E1
2.792784653E0,-3.314059377E-1,-1.714457393E0,9.549755096E0
2.794888168E0,-6.245267391E-1,-1.206580877E0,8.761918068E0
2.796984614E0,-7.220342159E-1,-6.125625968E-1,8.747561455E0
2.799108709E0,-4.031906128E-1,-6.909275651E-1,8.445467949E0
2.801216995E0,-2.201396823E-1,-1.734198213E0,9.908080101E0
2.803329941E0,-3.870390654E-1,-2.173281193E0,1.065822983E1
2.805433344E0,-4.899304509E-1,-2.613560438E0,1.061515903E1
2.807541468E0,1.196411322E-3,-2.341975212E0,1.092144108E1
2.809649622E0,5.862415582E-2,-1.921436548E0,1.033878803E1
2.811757909E0,1.776670814E-1,-1.342971683E0,9.496515274E0
2.813866257E0,-2.931207791E-2,-1.031904817E0,8.834898949E0
2.815974512E0,-3.326023519E-1,-8.871390224E-1,8.260622025E0
2.818083034E0,-4.013960063E-1,-1.375274777E0,8.475975990E0
2.820192134E0,-2.715853751E-1,-2.552543640E0,9.882357597E0
2.822299556E0,-2.644068897E-1,-3.303291559E0,1.145264721E1
2.824408595E0,1.992024779E-1,-3.362514019E0,1.133240795E1
2.826515488E0,1.525424421E-1,-2.769692183E0,9.730413437E0
2.828621445E0,-4.007977992E-2,-2.520838737E0,9.174081802E0
2.830721787E0,-1.567298770E-1,-2.342573404E0,9.679565430E0
2.832840501E0,-7.944171429E-1,-2.459821701E0,9.745368004E0
2.834949234E0,-8.877372146E-1,-2.306680918E0,8.979066849E0
2.837061000E0,-1.043868899E0,-2.669791937E0,9.833903313E0
2.839165411E0,-1.074377418E0,-2.864806890E0,1.081615639E1
2.841273718E0,-1.034297585E0,-2.774477959E0,1.000259686E1
2.843379787E0,-7.513462901E-1,-3.020938635E0,9.181260109E0
2.845488765E0,-7.088736892E-1,-3.078366280E0,8.980861664E0
2.847598343E0,-6.987041831E-1,-3.432504177E0,9.653842926E0
2.849704403E0,-6.885347366E-1,-3.269792080E0,9.585049629E0
2.851805742E0,-5.485545993E-1,-3.250649452E0,9.799804688E0
2.853923987E0,-5.030909777E-1,-3.567100286E0,9.510871887E0
2.856031226E0,-4.642075896E-1,-3.705883980E0,9.846465111E0
2.858141852E0,-5.341976285E-1,-3.705285788E0,1.039621639E1
2.860247393E0,-5.306084156E-1,-3.672384501E0,9.951749802E0
2.862355008E0,-5.916253924E-1,-3.432504177E0,1.001635551E1
2.864461035E0,-5.736792088E-1,-3.208176851E0,9.445667267E0
2.866572628E0,-5.461617708E-1,-2.811566591E0,8.638688087E0
2.868681077E0,-3.792623878E-1,-3.070589542E0,8.740981102E0
2.870790849E0,1.250249892E-1,-4.009772778E0,1.020538902E1
2.872894630E0,6.173482537E-1,-4.217350006E0,1.026760197E1
2.874995490E0,5.802595019E-1,-4.423730850E0,9.567103386E0
2.877113430E0,5.383850932E-1,-4.485345840E0,9.921838760E0
2.879219398E0,4.719842672E-1,-4.513461590E0,1.019940662E1
2.881322426E0,3.343969584E-1,-4.498506546E0,1.040997505E1
2.883436440E0,3.696911037E-1,-4.187439442E0,1.054098225E1
2.885539394E0,3.355933726E-1,-3.613162279E0,9.704092026E0
2.887658596E0,4.432703853E-1,-3.211168051E0,9.762118340E0
2.889763496E0,5.665007830E-1,-3.145365477E0,9.421140671E0
2.891874193E0,3.493520916E-1,-2.977269650E0,8.751151085E0
2.893979245E0,2.362912297E-1,-3.177070379E0,9.552147865E0
2.896087765E0,-1.794616925E-3,-3.539582968E0,1.029272652E1
2.898195910E0,1.567298770E-1,-3.655036688E0,1.051765156E1
2.900304095E0,1.938186288E-1,-3.660420418E0,1.023529911E1
2.902409899E0,1.256231815E-1,-3.617349625E0,9.876974106E0
2.904514889E0,1.573280841E-1,-3.698705673E0,9.571290970E0
2.906629574E0,9.272187948E-2,-3.498306751E0,8.666205406E0
2.908737831E0,-1.962114573E-1,-3.626920938E0,8.520841599E0
2.910847094E0,-9.212367237E-2,-3.851248026E0,9.702896118E0
2.912953652E0,-1.052841991E-1,-4.080360889E0,1.028375340E1
2.915062080E0,-1.064806059E-1,-4.386641979E0,1.025324535E1
2.917168343E0,1.842473447E-1,-4.560719967E0,1.006720352E1
2.919270678E0,1.136590727E-2,-4.473979950E0,9.851848602E0
2.921387866E0,2.273181453E-2,-4.205984116E0,9.978668213E0
2.923495227E0,9.511470050E-2,-3.961916208E0,9.817750931E0
2.925605467E0,-5.982056726E-3,-3.540779352E0,9.260223389E0
2.927708189E0,-2.931207791E-2,-3.497110367E0,9.317052841E0
2.929804615E0,-6.221338734E-2,-3.602394581E0,9.667003632E0
2.931915576E0,-2.931207791E-2,-3.923032761E0,9.914062500E0
2.934023862E0,-2.392822690E-2,-4.071387768E0,1.012522888E1
2.936137876E0,7.657032460E-2,-4.406383038E0,1.051525879E1
2.938254199E0,-6.699903309E-2,-4.286143780E0,1.043390274E1
2.940350747E0,-2.015953064E-1,-4.200001717E0,1.022273636E1
2.942462218E0,-1.525424421E-1,-3.812364578E0,9.994221687E0
2.944577187E0,4.486542568E-2,-3.544966698E0,1.001037312E1
2.946685789E0,-1.998006850E-1,-3.228515863E0,9.458827972E0
2.948786335E0,-3.397808075E-1,-3.170490026E0,9.214759827E0
2.950900053E0,-5.012963414E-1,-3.016751051E0,9.347561836E0
2.953001759E0,-4.241278172E-1,-3.040679455E0,9.548559189E0
2.955122334E0,-4.863412082E-1,-3.447459221E0,9.982855797E0
2.957227253E0,-2.572284341E-1,-3.692125320E0,1.011805058E1
2.959335672E0,-1.633101404E-1,-3.855435371E0,9.789037704E0
2.961429432E0,-9.212367237E-2,-3.994817495E0,9.866804123E0
2.963543710E0,-5.982056609E-4,-4.061816216E0,1.000558758E1
2.965659656E0,-1.495514158E-2,-3.870390654E0,9.784252167E0
2.967771189E0,-6.400800496E-2,-3.961317778E0,9.627521515E0
2.969878397E0,3.589234129E-2,-4.244269371E0,9.748957634E0
2.971981933E0,-3.050848842E-2,-4.171886444E0,9.777671814E0
2.974082304E0,-6.759724021E-2,-3.894318819E0,9.798608780E0
2.976200163E0,3.768695518E-2,-3.885345697E0,9.736394882E0
2.978309610E0,6.041877344E-2,-3.942773581E0,9.588638306E0
2.980420308E0,7.657032460E-2,-3.976273060E0,9.980463028E0
2.982526082E0,2.159522474E-1,-3.861417532E0,1.002233791E1
2.984634165E0,3.158525825E-1,-3.699303865E0,9.652048111E0
2.986742726E0,2.063809484E-1,-3.521636724E0,9.607781410E0
2.988851694E0,1.980060786E-1,-3.401995659E0,9.807581902E0
2.990958923E0,1.555334777E-1,-3.267997503E0,9.725028992E0
2.993067149E0,5.503492057E-2,-3.205185890E0,9.725028992E0
2.995172617E0,2.991028363E-3,-3.209971666E0,9.849455833E0
2.997273396E0,-6.879365444E-2,-3.113660574E0,9.872786522E0
2.999394419E0,-1.256231815E-1,-2.979662418E0,9.809376717E0
3.001509929E0,-1.782652885E-1,-2.907279491E0,9.704092026E0
3.003611481E0,-2.542374134E-1,-2.749353170E0,9.741181374E0
3.005719899E0,-3.768695593E-1,-2.427518606E0,9.872187614E0
3.007831644E0,-4.594219327E-1,-1.675574064E0,9.865608215E0
3.009933177E0,-3.044866920E-1,-2.685943544E-1,9.889535904E0
3.012041128E0,1.495514158E-2,4.390829504E-1,9.805189133E0
3.014147409E0,1.794617064E-2,1.567298770E-1,9.722038269E0
3.016255412E0,-9.391828626E-2,-1.399801224E-1,9.720243454E0
3.018353556E0,-1.028913707E-1,-7.776673883E-2,9.772287369E0
3.020462078E0,-7.836493850E-2,-5.982056726E-3,9.776474953E0
3.022571137E0,-4.067798331E-2,-2.991028316E-2,9.747760773E0
3.024681223E0,-5.982056633E-2,-3.948157281E-2,9.733404160E0
3.026790334E0,-5.503492057E-2,-4.905286431E-2,9.738189697E0
3.028898143E0,-3.589234129E-2,-3.948157281E-2,9.723833084E0
3.031005514E0,-4.067798331E-2,-7.776673883E-2,9.748359680E0
3.033113760E0,-5.503492057E-2,-1.112662554E-1,9.767501831E0
3.035224599E0,-7.417750359E-2,-1.351944804E-1,9.777671814E0
3.037343496E0,-7.956135273E-2,-1.974078715E-1,9.754341125E0
3.039449494E0,-5.563312769E-2,-2.404786795E-1,9.739984512E0
3.041548921E0,-3.170489892E-2,-3.218346536E-1,9.788438797E0
3.043664898E0,-3.230310604E-2,-4.175475538E-1,9.803992271E0
3.045773123E0,-3.768695518E-2,-5.569294691E-1,9.776474953E0
3.047884177E0,5.383851007E-3,-6.813562512E-1,9.882955551E0
3.049987438E0,1.854437590E-2,-8.536394835E-1,9.855438232E0
3.052088198E0,-3.110669367E-2,-1.102493048E0,9.767501831E0
3.054206798E0,-6.101697683E-2,-1.322632670E0,9.650253296E0
3.056315634E0,-1.004985496E-1,-1.557129383E0,9.709476471E0
3.058425253E0,-1.483550072E-1,-1.791625977E0,9.946365356E0
3.060526094E0,-1.752742529E-1,-2.199003935E0,9.701699257E0
3.062619671E0,-2.159522474E-1,-2.663211584E0,9.529416084E0
3.064747580E0,-2.608176768E-1,-3.017349243E0,9.561718941E0
3.066855785E0,-3.194418252E-1,-3.285345554E0,9.573683739E0
3.068968843E0,-3.104687333E-1,-3.424129248E0,9.632905960E0
3.071072471E0,-2.428714931E-1,-3.495913982E0,9.843474388E0
3.073181490E0,-1.615155339E-1,-3.630510092E0,9.930213928E0
3.075288901E0,-9.152546525E-2,-3.903890133E0,9.784252167E0
3.077397096E0,-3.565305769E-1,-4.031906128E0,9.586245537E0
3.079502575E0,-4.420739710E-1,-4.127619267E0,9.802198410E0
3.081603467E0,-3.355933726E-1,-4.122833252E0,1.015095139E1
3.083721611E0,-2.799602449E-1,-4.420141697E0,9.976275444E0
3.085829592E0,-1.130608693E-1,-4.554738045E0,9.924830437E0
3.087941307E0,-1.232303679E-1,-4.631308079E0,9.858428955E0
3.090047528E0,5.383851007E-2,-4.655834675E0,9.972686768E0
3.092154991E0,-4.247260094E-2,-4.574478626E0,9.771689415E0
3.094263125E0,2.033899166E-2,-4.483551502E0,9.693922997E0
3.096368187E0,1.034895778E-1,-4.253840446E0,9.935597420E0
3.098479576E0,1.848455518E-1,-4.163511276E0,9.766903877E0
3.100587140E0,1.040877849E-1,-3.923630953E0,9.616754532E0
3.102694999E0,-2.333002165E-2,-3.530609846E0,9.709476471E0
3.104803214E0,-6.460621208E-2,-3.113660574E0,9.738788605E0
3.106913414E0,2.093719877E-2,-2.668595552E0,1.021735287E1
3.109021090E0,1.333998591E-1,-2.434098721E0,1.049192905E1
3.111129153E0,2.548356056E-1,-2.717050076E0,1.004925728E1
3.113236982E0,-3.170489892E-2,-2.769692183E0,9.066405296E0
3.115345441E0,6.460621208E-2,-2.807977438E0,9.266803741E0
3.117453647E0,6.640082598E-2,-2.697907448E0,9.547960281E0
3.119562004E0,-4.666004330E-2,-2.486740828E0,9.780662537E0
3.121670322E0,-1.896311939E-1,-2.280359983E0,9.779465675E0
3.123779504E0,-1.034895778E-1,-2.160718918E0,9.653842926E0
3.125886620E0,-2.709871531E-1,-1.700100541E0,1.028076267E1
3.127990949E0,-1.603191197E-1,-1.618744493E0,1.032263660E1
3.130084649E0,-1.854437590E-1,-1.666600943E0,1.015095139E1
3.132198805E0,-2.506481707E-1,-1.782054663E0,9.583852768E0
3.134307030E0,-1.878365725E-1,-1.887338877E0,9.742377281E0
3.136419690E0,-1.316052526E-1,-2.108076811E0,9.782457352E0
3.138528557E0,-3.708875179E-2,-2.170888424E0,9.452845573E0
3.140646203E0,-1.136590727E-2,-2.012363911E0,9.704689980E0
3.142754999E0,6.939185411E-2,-2.209173441E0,9.844670296E0
3.144863335E0,1.453639716E-1,-2.362912416E0,9.774082184E0
3.146969241E0,1.686939895E-1,-2.429911375E0,9.765109062E0
3.149072554E0,1.998006850E-1,-2.103889227E0,9.952945709E0
3.151164666E0,2.243271172E-1,-1.941177368E0,9.975079536E0
3.153284825E0,7.896314561E-2,-2.103889227E0,9.604789734E0
3.155402571E0,-4.067798331E-2,-2.041077614E0,9.585049629E0
3.157515985E0,1.794617027E-1,-2.219342947E0,9.743574142E0
3.159620721E0,2.105683982E-1,-2.497508526E0,9.473783493E0
3.161726231E0,2.452643216E-1,-2.219941139E0,9.461220741E0
3.163833287E0,2.237289101E-1,-2.147558212E0,9.967302322E0
3.165942121E0,4.187439568E-3,-2.112862349E0,1.006361389E1
3.168051721E0,7.537391037E-2,-2.012962103E0,9.799206734E0
3.170160181E0,1.615155302E-2,-2.113460541E0,9.446864128E0
3.172266311E0,-1.734796353E-2,-2.161317110E0,9.591031075E0
3.174367140E0,-8.793623000E-2,-2.160718918E0,9.911669731E0
3.176484684E0,5.204389244E-2,-1.969292998E0,9.971489906E0
3.178592737E0,9.990034252E-2,-1.931606054E0,9.879964828E0
3.180703292E0,9.930214286E-2,-1.984248161E0,9.832706451E0
3.182809087E0,-1.070788130E-1,-1.959721804E0,9.603593826E0
3.184917454E0,-9.152546525E-2,-1.816152334E0,9.793225288E0
3.187025914E0,1.016949639E-1,-1.840080619E0,1.029033375E1
3.189134363E0,1.196411327E-1,-2.012962103E0,1.013838959E1
3.191243372E0,-4.905286431E-2,-2.088934183E0,9.939187050E0
3.193352706E0,-3.349951655E-2,-2.529811859E0,9.565906525E0
3.195467748E0,-2.596212626E-1,-2.529213428E0,9.270393372E0
3.197566726E0,-3.266202807E-1,-2.178664923E0,1.013240719E1
3.199675217E0,-3.140579760E-1,-2.380260229E0,9.929018021E0
3.201781144E0,-3.403790295E-1,-2.394617319E0,9.297910690E0
3.203891750E0,-4.821537733E-1,-2.250449657E0,9.602995872E0
3.205998367E0,-1.752742529E-1,-2.542972326E0,1.007318497E1
3.208101771E0,-1.489532143E-1,-2.596212626E0,9.571888924E0
3.210216415E0,-3.044866920E-1,-2.289333105E0,9.822537422E0
3.212324580E0,-2.907279432E-1,-2.322832584E0,9.607781410E0
3.214434616E0,-2.470589429E-1,-1.997408748E0,9.499505997E0
3.216539729E0,4.785645287E-3,-2.079362869E0,1.029751205E1
3.218643774E0,1.178465188E-1,-2.304886341E0,1.005045319E1
3.220755367E0,2.195414752E-1,-2.180459738E0,1.013539886E1
3.222856298E0,2.243271172E-1,-2.166102648E0,1.010608673E1
3.224976486E0,1.447657645E-1,-2.200200319E0,9.404391289E0
3.227084681E0,-1.818545163E-1,-2.170290232E0,9.123234749E0
3.229199550E0,-3.361915946E-1,-1.891526341E0,9.766903877E0
3.231296149E0,-3.403790295E-1,-2.164906263E0,9.133403778E0
3.233407060E0,-5.539384484E-1,-2.164308071E0,9.535996437E0
3.235513738E0,-5.096712112E-1,-2.067996979E0,9.702297211E0
3.237624354E0,-2.703889608E-1,-2.021337032E0,9.619745255E0
3.239729630E0,7.776673418E-3,-2.070389748E0,9.776474953E0
3.241828457E0,-8.673982322E-2,-2.070389748E0,8.968897820E0
3.243934494E0,-3.290131316E-2,-1.605584025E0,9.925428391E0
3.246044389E0,6.759724021E-1,-1.702493310E0,1.119003487E1
3.248155300E0,9.912267923E-1,-1.761117458E0,1.103210926E1
3.250263495E0,9.026923180E-1,-2.044667006E0,9.591031075E0
3.252371416E0,6.149554253E-1,-2.160120726E0,8.426922798E0
3.254480016E0,4.845465720E-1,-2.029113531E0,9.253643036E0
3.256588069E0,3.864408433E-1,-2.071586132E0,9.870991707E0
3.258697292E0,-1.262213886E-1,-2.026720762E0,9.753145218E0
3.260804216E0,-3.649054468E-1,-2.041077614E0,8.831310272E0
3.262912350E0,-1.088734269E-1,-1.792822361E0,8.966505051E0
3.265021439E0,5.641079545E-1,-1.429711580E0,1.048056316E1
3.267133001E0,1.207179070E0,-1.014556766E0,1.143529987E1
3.269239355E0,1.433898926E0,-1.207777262E0,1.083829021E1
3.271348528E0,1.366899967E0,-1.913061738E0,9.291928291E0
3.273453051E0,1.121037364E0,-2.098505497E0,9.160921097E0
3.275562547E0,8.745766878E-1,-2.475973129E0,9.059824944E0
3.277669531E0,5.551348329E-1,-2.048854351E0,8.861220360E0
3.279778347E0,7.680960894E-1,-1.933400750E0,1.048953629E1
3.281886543E0,5.341976285E-1,-1.755135417E0,1.060798073E1
3.283995632E0,2.835494876E-1,-1.875374794E0,9.023334503E0
3.286103105E0,1.094716340E-1,-1.717448473E0,8.468199730E0
3.288211250E0,2.129612118E-1,-1.113260746E0,9.762118340E0
3.290319597E0,5.533402562E-1,-4.570291340E-1,1.144187927E1
3.292428831E0,7.531409264E-1,-8.979067206E-1,1.161715412E1
3.294536669E0,4.707878530E-1,-1.611566067E0,1.003310490E1
3.296645637E0,1.100698411E-1,-2.161915302E0,9.088538170E0
3.298755043E0,1.507478207E-1,-2.617149830E0,9.020941734E0
3.300873899E0,2.895315289E-1,-2.828316450E0,9.247062683E0
3.302981493E0,1.088734269E-1,-2.760120869E0,9.514460564E0
3.305087756E0,-1.782652885E-1,-2.458027124E0,9.240483284E0
3.307186989E0,-5.916253924E-1,-1.866999865E0,9.355937004E0
3.309305316E0,-4.666004181E-1,-1.459621787E0,1.026939678E1
3.311412229E0,-5.814558864E-1,-1.253839016E0,1.003370380E1
3.313522754E0,-5.042873621E-1,-1.426122308E0,1.036032391E1
3.315628394E0,-6.179464459E-1,-1.818545222E0,9.948160172E0
3.317736855E0,-4.606183469E-1,-2.168495417E0,1.008993530E1
3.319845396E0,-3.332005441E-1,-2.370688915E0,9.827920914E0
3.321953408E0,-3.224328458E-1,-2.514856577E0,9.189037323E0
3.324062040E0,-4.977070987E-1,-2.447857618E0,8.261817932E0
3.326172930E0,-4.313062727E-1,-1.973480463E0,8.754141808E0
3.328284482E0,-4.145565331E-1,-1.359721422E0,9.986445427E0
3.330386544E0,-6.059823632E-1,-9.798609018E-1,1.081496048E1
3.332494240E0,-6.520441771E-1,-6.538388133E-1,1.078863907E1
3.334601316E0,-7.746763229E-1,-2.895315289E-1,1.092383385E1
3.336711119E0,-7.034898400E-1,-6.879364848E-1,9.966704369E0
3.338820036E0,-5.419743061E-1,-7.022934556E-1,1.087896824E1
3.340930072E0,-4.881358147E-1,-1.214955688E0,1.047757244E1
3.343036986E0,-4.121637046E-1,-1.566102386E0,9.510273933E0
3.345144143E0,-5.228317380E-1,-1.896910191E0,8.591429710E0
3.347251901E0,-4.683950245E-1,-1.968096614E0,9.059824944E0
3.349357838E0,-5.138586760E-1,-2.260619164E0,8.910273552E0
3.351458414E0,-6.496513486E-1,-2.179263115E0,8.321639061E0
3.353575886E0,-6.669993401E-1,-1.593619823E0,9.324830055E0
3.355684141E0,-3.864408433E-1,-1.129412293E0,1.071027374E1
3.357796425E0,-2.973082066E-1,-8.608179688E-1,1.117149067E1
3.359902617E0,-2.207378894E-1,-1.086939692E0,1.015992451E1
3.362008646E0,-5.617151260E-1,-9.571290612E-1,9.748957634E0
3.364119556E0,-5.024927258E-1,-9.188438654E-1,1.019282627E1
3.366226418E0,-4.372883439E-1,-7.124629617E-1,1.075454140E1
3.368335386E0,-6.963114142E-1,-8.943174481E-1,9.567103386E0
3.370442778E0,-3.708875179E-1,-9.625129104E-1,9.566504478E0
3.372551208E0,-4.031906128E-1,-1.326820135E0,9.206983566E0
3.374659860E0,8.135596663E-2,-1.697109461E0,9.744172096E0
3.376768818E0,3.661018610E-1,-2.076371908E0,9.607781410E0
3.378876087E0,2.799602449E-1,-2.397608280E0,8.769695282E0
3.380984354E0,8.015955985E-2,-2.176870346E0,8.730213165E0
3.383093811E0,-4.187439755E-2,-1.566700578E0,9.920044899E0
3.385206837E0,1.238285750E-1,-1.375274777E0,1.052483082E1
3.387309122E0,1.998006850E-1,-1.150947690E0,1.009651470E1
3.389413472E0,9.332008660E-2,-1.107876897E0,9.685547829E0
3.391508625E0,3.553341627E-1,-1.324427366E0,9.576674461E0
3.393632080E0,4.396811724E-1,-9.798609018E-1,9.974481583E0
3.395731231E0,4.289134443E-1,-6.538388133E-1,1.040698433E1
3.397850463E0,5.204389095E-1,-8.213363886E-1,1.079521942E1
3.399941182E0,2.482553422E-1,-5.904290080E-1,1.073180962E1
3.402062307E0,4.277170599E-1,-1.266999602E0,9.662218094E0
3.404174265E0,2.590230405E-1,-1.621735573E0,8.604590416E0
3.406284128E0,5.623133108E-2,-1.612164259E0,8.075178146E0
3.408393717E0,-2.033899277E-1,-1.845464468E0,8.164310455E0
3.410500763E0,-1.387837082E-1,-1.950748682E0,8.939585686E0
3.412608786E0,-9.649057388E-1,-1.674377680E0,9.193224907E0
3.414716247E0,-6.789634228E-1,-1.645663738E0,1.000917721E1
3.416824198E0,3.463610709E-1,-1.744965911E0,1.029811001E1
3.418932810E0,7.268198729E-1,-1.540379524E0,1.050927734E1
3.421041067E0,4.450650215E-1,-1.176072359E0,1.030169964E1
3.423147970E0,4.755735099E-1,-9.696913958E-1,1.055294609E1
3.425256765E0,5.431707501E-1,-9.840483069E-1,1.070070267E1
3.427364451E0,3.936193287E-1,-1.233500123E0,9.523433685E0
3.429462505E0,2.458625287E-1,-1.357328653E0,9.725627899E0
3.431576549E0,6.699903309E-2,-1.453041553E0,9.550353050E0
3.433690135E0,3.463610709E-1,-1.578066587E0,9.994820595E0
3.435801331E0,2.494517565E-1,-1.434497118E0,9.640084267E0
3.437904846E0,-5.383851007E-3,-1.304088354E0,9.205188751E0
3.440000917E0,-1.010967568E-1,-1.227517962E0,9.108877182E0
3.442123658E0,-2.273181453E-2,-1.423729420E0,9.713065147E0
3.444232788E0,-1.926222295E-1,-1.121037364E0,9.993025780E0
3.446343536E0,-8.135596663E-2,-1.006181955E0,1.019222832E1
3.448448233E0,3.098705411E-1,-1.089332461E0,9.904491425E0
3.450556123E0,1.435693651E-1,-7.633104324E-1,9.897313118E0
3.452664705E0,1.776670814E-1,-6.723831892E-1,9.867402077E0
3.454772930E0,-3.649054468E-2,-4.941178858E-1,9.976874352E0
3.456881176E0,-3.014956415E-1,-4.217349887E-1,9.541978836E0
3.458989656E0,-3.122633696E-1,-3.505485058E-1,9.211769104E0
3.461097760E0,-6.340979785E-2,-1.878365725E-1,1.014616585E1
3.463201652E0,1.405783296E-1,-3.326023519E-1,9.783055305E0
3.465314179E0,7.118647546E-2,-2.548356056E-1,1.032323551E1
3.467422120E0,-3.290131316E-2,-6.281159073E-2,1.045065308E1
3.469528993E0,2.147558331E-1,-2.267199457E-1,1.022632599E1
3.471625856E0,2.727817893E-1,-7.208378315E-1,9.801001549E0
3.473736950E0,-3.672982752E-1,-9.068797827E-1,8.045866013E0
3.475855785E0,-8.386843204E-1,-8.147560954E-1,7.382455826E0
3.477967286E0,-8.404789567E-1,-3.583251834E-1,8.898308754E0
3.480074088E0,-8.195417523E-1,-1.256231871E-2,1.014257717E1
3.482178550E0,-7.010970116E-1,4.378865361E-1,1.053918743E1
3.484286674E0,-9.332008660E-2,9.254241586E-1,1.222433281E1
3.486395449E0,-1.764706671E-1,3.690928817E-1,1.123131084E1
3.488505108E0,-3.978067636E-1,-1.250249892E-1,9.080761909E0
3.490613375E0,-3.511467278E-1,-6.957131624E-1,8.158329010E0
3.492719210E0,-3.355933726E-1,-4.791627228E-1,9.413962364E0
3.494820243E0,-2.135594189E-1,-6.909275651E-1,9.085547447E0
3.496938142E0,2.273181453E-2,-6.771687865E-1,9.547960281E0
3.499047253E0,-3.625126183E-1,-1.154536903E-1,9.539586067E0
3.501156639E0,-9.511470050E-2,1.716850251E-1,1.017607689E1
3.503262434E0,-3.409772366E-2,6.364908218E-1,1.051107121E1
3.505372795E0,1.543370634E-1,8.129615188E-1,1.080479050E1
3.507488273E0,2.428714931E-1,7.028916478E-1,1.146999550E1
3.509587903E0,9.092725813E-2,4.719842672E-1,9.598808289E0
3.511696505E0,-2.925225794E-1,1.615155339E-1,8.709874153E0
3.513801598E0,1.986042857E-1,-1.674975827E-2,9.650852203E0
3.515909650E0,1.369891018E-1,1.752742529E-1,9.491728783E0
3.518008069E0,4.247260094E-2,7.064808607E-1,9.286544800E0
3.520115969E0,1.836491376E-1,7.974081635E-1,9.719645500E0
3.522224226E0,3.529413342E-1,5.533402562E-1,1.037647533E1
3.524334627E0,1.094716340E-1,5.437689424E-1,9.478569031E0
3.526443331E0,-9.032905847E-2,9.619147182E-1,1.042672443E1
3.528552187E0,2.261217386E-1,7.220342159E-1,1.089153004E1
3.530659833E0,2.907279432E-1,4.378865361E-1,9.364311218E0
3.532768232E0,1.555334684E-2,6.580262445E-3,8.083553314E0
3.534878919E0,1.477568001E-1,-2.147558331E-1,7.769495010E0
3.536997368E0,-3.529413417E-2,-9.810572863E-2,8.682356834E0
3.539105218E0,-7.836493850E-2,1.471585929E-1,9.598209381E0
3.541213148E0,3.008974493E-1,5.060819983E-1,1.068754196E1
3.543317682E0,3.553341627E-1,1.018146038E0,1.047218800E1
3.545430107E0,4.480560422E-1,1.366899967E0,1.046859932E1
3.547547682E0,5.736792088E-1,1.481755376E0,1.059601688E1
3.549640587E0,2.823530734E-1,1.515254974E0,9.593423843E0
3.551737135E0,-3.349951655E-2,1.443470240E0,8.447860718E0
3.553857436E0,-5.443671346E-2,1.708475351E0,1.023828983E1
3.555968672E0,2.967100143E-1,1.915454507E0,1.276810169E1
3.558080672E0,9.571290761E-2,1.618744493E0,1.202154064E1
3.560182265E0,-2.506481707E-1,1.104287624E0,8.509475708E0
3.562281997E0,-4.055834413E-1,8.883354068E-1,7.164111137E0
3.564402215E0,-7.202396393E-1,1.009172916E0,7.283751965E0
3.566511021E0,-6.323033571E-1,9.858429432E-1,7.828717709E0
3.568621006E0,-1.441675574E-1,1.354337573E0,9.811769485E0
3.570726363E0,-2.871387079E-2,2.198405743E0,1.138564873E1
3.572834222E0,2.925225794E-1,2.705085993E0,1.211067390E1
3.574943057E0,-1.866401732E-1,3.055036306E0,1.032622623E1
3.577051477E0,-2.488535494E-1,3.005983353E0,9.256634712E0
3.579159357E0,-2.380858511E-1,3.194418192E0,1.051645565E1
3.581261012E0,-4.504488707E-1,3.165704250E0,1.015454102E1
3.583368169E0,-5.467599630E-1,2.637488842E0,8.218747139E0
3.585483952E0,-7.369893789E-1,2.608774900E0,7.254439831E0
3.587593448E0,-8.099704385E-1,2.844467878E0,7.892725468E0
3.589702539E0,-7.393822074E-1,3.396013498E0,9.493523598E0
3.591808761E0,-6.293123364E-1,3.765106440E0,1.028794098E1
3.593914992E0,-5.922235847E-1,4.272983074E0,1.053619671E1
3.596016148E0,-4.528416991E-1,4.685146809E0,1.141137123E1
3.598133661E0,-4.360919297E-1,4.948357105E0,1.173858929E1
3.600241826E0,-2.572284341E-1,4.942375183E0,1.093998528E1
3.602352280E0,-1.902294010E-1,4.510470867E0,1.020778179E1
3.604458093E0,-3.720839322E-1,4.332803726E0,9.144171715E0
3.606565516E0,-6.723831892E-1,4.068994999E0,7.417151928E0
3.608674952E0,-8.662018180E-1,4.347758770E0,7.711469173E0
3.610782994E0,-1.030110121E0,4.838287354E0,9.399605751E0
3.612891047E0,-7.537391186E-1,5.489733219E0,1.072642612E1
3.614996047E0,-6.197410822E-1,5.589633465E0,1.049551868E1
3.617097814E0,-3.870390654E-1,5.243870735E0,1.034955597E1
3.619213578E0,-1.860419661E-1,5.152345181E0,1.045484066E1
3.621314316E0,-4.666004330E-2,5.242076397E0,9.315856934E0
3.623434993E0,-8.973085135E-2,5.614758492E0,8.834300995E0
3.625540807E0,-4.869394004E-1,6.248856544E0,9.417551994E0
3.627651871E0,-4.875376225E-1,6.436692715E0,1.026700401E1
3.629758357E0,-4.648058116E-1,6.229713917E0,8.997013092E0
3.631865637E0,-2.123630047E-1,6.358327866E0,9.664012909E0
3.633974767E0,-3.367897868E-1,6.671189308E0,1.054098225E1
3.636081732E0,-5.389832854E-1,6.619145870E0,1.038963604E1
3.638187912E0,-6.101697683E-1,6.503692150E0,9.410971642E0
3.640289047E0,-5.425725579E-1,6.560521603E0,9.481559753E0
3.642406744E0,-4.133601189E-1,6.302096844E0,9.684351921E0
3.644515295E0,-2.949153781E-1,6.152545452E0,9.513264656E0
3.646626419E0,-1.764706671E-1,6.032305717E0,9.428318977E0
3.648728816E0,-3.672982752E-1,5.956932068E0,9.620942116E0
3.650829362E0,-3.553341627E-1,5.611767292E0,9.480362892E0
3.652947740E0,-3.601198196E-1,5.635695457E0,9.518648148E0
3.655056300E0,-3.254238665E-1,5.702694416E0,9.713663101E0
3.657167089E0,-2.051845491E-1,5.717051506E0,9.775279045E0
3.659272029E0,-3.631108403E-1,5.789434433E0,9.732208252E0
3.661378516E0,-3.625126183E-1,5.851647854E0,9.870393753E0
3.663490281E0,-6.454638839E-1,5.848058701E0,9.780662537E0
3.665597377E0,-7.944171429E-1,5.929414749E0,9.574879646E0
3.667706386E0,-8.261220455E-1,6.016154289E0,9.889535904E0
3.669813280E0,-7.974081635E-1,5.968297958E0,9.990034103E0
3.671920600E0,-7.459624410E-1,5.728417397E0,9.891928673E0
3.674028855E0,-6.795616150E-1,5.536991596E0,9.941579819E0
3.676137518E0,-5.132604837E-1,5.368297577E0,9.727422714E0
3.678247738E0,-5.599204898E-1,5.124229908E0,9.203991890E0
3.680356524E0,-7.190431952E-1,5.114658356E0,8.989236832E0
3.682463803E0,-6.867401004E-1,5.277968407E0,9.594620705E0
3.684572414E0,-5.892325640E-1,5.440680504E0,9.894321442E0
3.686679643E0,-5.072783828E-1,5.392824173E0,1.011864853E1
3.688788113E0,-6.281159520E-1,5.368896008E0,9.803992271E0
3.690896186E0,-3.696911037E-1,5.185844898E0,9.924231529E0
3.693003344E0,-3.625126183E-1,4.917848587E0,9.673583984E0
3.695108202E0,-4.695914388E-1,4.712066174E0,9.427123070E0
3.697222256E0,-2.237289101E-1,4.759324074E0,9.918250084E0
3.699328000E0,1.196411345E-2,4.706083775E0,1.014257717E1
3.701433113E0,1.196411327E-1,4.466203690E0,9.843474388E0
3.703545021E0,1.507478207E-1,4.287938118E0,9.381061554E0
3.705652046E0,9.212367237E-2,4.192225456E0,9.200403214E0
3.707763791E0,-7.836493850E-2,4.341776848E0,9.582057953E0
3.709870572E0,-7.298108935E-2,4.313661098E0,9.787840843E0
3.711979703E0,-3.050848842E-2,4.164707661E0,9.794421196E0
3.714088508E0,-4.426721856E-2,4.231706619E0,9.803394318E0
3.716195452E0,1.256231871E-2,4.169493675E0,9.726823807E0
3.718303790E0,7.896314561E-2,4.073182583E0,9.670592308E0
3.720411456E0,7.298108935E-2,3.915256023E0,9.628718376E0
3.722520008E0,1.328016520E-1,4.049253941E0,9.928419113E0
3.724628273E0,1.597209126E-1,3.853042603E0,9.805787086E0
3.726733986E0,1.872383654E-1,3.675375462E0,9.716654778E0
3.728834897E0,2.153540403E-1,3.469592810E0,9.747162819E0
3.730951546E0,2.530409992E-1,3.253640652E0,9.796813965E0
3.733051319E0,2.667997181E-1,3.129213810E0,9.884152412E0
3.735172269E0,3.517449200E-1,2.946761131E0,9.713065147E0
3.737277555E0,3.218346536E-1,2.841476917E0,9.566504478E0
3.739389097E0,2.165504545E-1,2.765504837E0,9.634101868E0
3.741496519E0,1.782652885E-1,2.732005358E0,9.778269768E0
3.743601001E0,1.782652885E-1,2.598007202E0,9.841679573E0
3.745709837E0,1.710868180E-1,2.157727718E0,9.807581902E0
3.747816842E0,8.374879509E-2,8.697910309E-1,9.858428955E0
3.749917245E0,-2.751746029E-2,-3.511467278E-1,9.769894600E0
3.752035776E0,-1.627119333E-1,-3.792623878E-1,9.493523598E0
3.754143460E0,-1.794617027E-1,7.118647546E-2,9.608977318E0
3.756254596E0,-9.571290575E-3,2.572284341E-1,9.907482147E0
3.758360187E0,3.768695518E-2,1.854437590E-1,9.869794846E0
3.760468454E0,-4.905286431E-2,1.615155339E-1,9.707681656E0
3.762576923E0,-9.272187948E-2,1.088734269E-1,9.722636223E0
3.764686094E0,-6.819544733E-2,1.088734269E-1,9.789635658E0
3.766793526E0,-6.340979785E-2,1.040877849E-1,9.799206734E0
3.768902556E0,-5.383851007E-2,8.015955985E-2,9.799206734E0
3.771007140E0,-8.255238086E-2,1.040877849E-1,9.770493507E0
3.773108896E0,-6.340979785E-2,7.058826834E-2,9.775279045E0
3.775226011E0,-7.357929647E-2,7.058826834E-2,9.775279045E0
3.777334492E0,-6.879365444E-2,6.101697683E-2,9.780662537E0
3.779445688E0,-7.298108935E-2,8.494520187E-2,9.784850121E0
3.781555185E0,-6.819544733E-2,8.015955985E-2,9.770493507E0
3.783665496E0,-5.862415582E-2,7.058826834E-2,9.775279045E0
3.785767486E0,-4.426721856E-2,8.494520187E-2,9.775279045E0
3.787875030E0,-3.948157281E-2,8.494520187E-2,9.775279045E0
3.789982391E0,-3.948157281E-2,1.088734269E-1,9.751350403E0
3.792092122E0,-2.991028316E-2,1.136590764E-1,9.756135941E0
3.794200306E0,-2.512463741E-2,1.088734269E-1,9.765707016E0
3.796308868E0,-2.991028316E-2,9.451649338E-2,9.770493507E0
3.798417877E0,-2.033899166E-2,1.040877849E-1,9.756135941E0
3.800524801E0,-3.948157281E-2,1.136590764E-1,9.751350403E0
3.802631774E0,-5.862415582E-2,1.088734269E-1,9.746564865E0
3.804737741E0,-4.426721856E-2,1.280160099E-1,9.731609344E0
3.806837798E0,-4.905286431E-2,1.088734269E-1,9.741779327E0
3.808946136E0,-3.469592705E-2,1.088734269E-1,9.741779327E0
3.811054209E0,-5.383851007E-2,1.088734269E-1,9.736993790E0
3.813164398E0,-4.426721856E-2,1.088734269E-1,9.741779327E0
3.815275716E0,-6.340979785E-2,1.184447184E-1,9.746564865E0
3.817392222E0,-5.383851007E-2,1.136590764E-1,9.751350403E0
3.819499421E0,-7.776673883E-2,1.280160099E-1,9.732208252E0
3.821599549E0,-6.340979785E-2,1.328016520E-1,9.765109062E0
3.823716136E0,-6.340979785E-2,1.375873089E-1,9.741181374E0
3.825824065E0,-4.905286431E-2,1.519442350E-1,9.755537987E0
3.827934733E0,-5.383851007E-2,1.854437590E-1,9.745966911E0
3.830040894E0,-5.383851007E-2,1.854437590E-1,9.760323524E0
3.832149709E0,-4.905286431E-2,1.950150430E-1,9.774082184E0
3.834257324E0,-4.426721856E-2,1.806581169E-1,9.760323524E0
3.836364991E0,-4.426721856E-2,1.854437590E-1,9.745966911E0
3.838467744E0,-4.426721856E-2,2.189432681E-1,9.731011391E0
3.840581951E0,-6.281159073E-2,2.476571500E-1,9.745368004E0
3.842689739E0,-5.324030295E-2,2.859423161E-1,9.749555588E0
3.844799907E0,-5.802594870E-2,2.859423161E-1,9.768698692E0
3.846907064E0,-3.409772366E-2,3.098705411E-1,9.754341125E0
3.849013215E0,-2.931207791E-2,3.242274821E-1,9.768099785E0
3.851112774E0,-9.571290575E-3,3.337987661E-1,9.772886276E0
3.853231080E0,-2.392822690E-2,3.720839322E-1,9.753743172E0
3.855339285E0,-2.871387079E-2,4.055834413E-1,9.738788605E0
3.857450339E0,-2.392822690E-2,4.295116663E-1,9.762716293E0
3.859553488E0,-6.221338734E-2,5.012963414E-1,9.733404160E0
3.861653902E0,-7.597211748E-2,5.928218365E-1,9.736993790E0
3.863771516E0,-7.537391037E-2,6.885347366E-1,9.793823242E0
3.865880596E0,-7.477571070E-2,7.986045480E-1,9.739984512E0
3.867991589E0,-4.067798331E-2,9.134600163E-1,9.734002113E0
3.870095176E0,-3.589234129E-2,9.565308690E-1,9.719047546E0
3.872196311E0,-5.922235921E-2,1.114457130E0,9.741779327E0
3.874313782E0,-9.152546525E-2,1.320838094E0,9.783055305E0
3.876421948E0,-1.094716340E-1,1.607976794E0,9.694520950E0
3.878532493E0,-2.279163599E-1,1.924427629E0,9.634700775E0
3.880638633E0,-3.038884699E-1,2.106282234E0,9.585049629E0
3.882747611E0,-2.991028428E-1,2.134995937E0,9.561120987E0
3.884854982E0,-3.320041299E-1,2.164308071E0,9.723235130E0
3.886963177E0,-4.354937077E-1,2.428116798E0,9.912267685E0
3.889071189E0,-4.827519655E-1,2.763111830E0,9.747162819E0
3.891179659E0,-4.145565331E-1,2.949752092E0,9.735198975E0
3.893285290E0,-5.042873621E-1,3.194418192E0,9.719047546E0
3.895383383E0,-5.503492355E-1,3.553939819E0,9.759127617E0
3.897491579E0,-5.593222976E-1,3.640081406E0,9.887143135E0
3.899597261E0,-6.735795736E-1,3.808177233E0,9.814162254E0
3.901710930E0,-5.964110494E-1,3.960719585E0,9.807581902E0
3.903827497E0,-6.143572330E-1,4.124029636E0,9.878170013E0
3.905929415E0,-6.867401004E-1,4.200600147E0,9.753145218E0
3.908048800E0,-6.239284873E-1,4.253242016E0,9.824331284E0
3.910153536E0,-6.035895348E-1,4.478167534E0,9.865009308E0
3.912264722E0,-6.029912829E-1,4.731806755E0,9.714262009E0
3.914370475E0,-6.556333899E-1,4.789234638E0,9.575477600E0
3.916479565E0,-6.412764788E-1,4.827519894E0,9.565308571E0
3.918586907E0,-5.503492355E-1,4.784449100E0,9.617950439E0
3.920694939E0,-5.497509837E-1,4.856233597E0,9.669994354E0
3.922802971E0,-4.474578202E-1,4.990231514E0,9.854840279E0
3.924911653E0,-5.623133183E-1,5.091328144E0,9.892526627E0
3.927019920E0,-3.182454109E-1,4.994419098E0,9.868598938E0
3.929128339E0,-2.943171859E-1,5.051846981E0,9.767501831E0
3.931236586E0,-1.136590727E-2,5.299503803E0,9.549157143E0
3.933344048E0,7.776673418E-3,5.400002480E0,9.509675026E0
3.935451622E0,-4.426721856E-2,5.447858810E0,9.519247055E0
3.937564120E0,-2.536391914E-1,5.487340450E0,9.897313118E0
3.939680677E0,-3.732803464E-1,5.483152866E0,9.973882675E0
3.941777693E0,-4.839483798E-1,5.554937840E0,9.758528709E0
3.943885715E0,-5.934200287E-1,5.665606022E0,9.762716293E0
3.945991214E0,-4.791627228E-1,5.674578667E0,9.580862045E0
3.948101780E0,-3.481557071E-1,5.693721294E0,9.914660454E0
3.950208479E0,-2.344966233E-1,5.673980713E0,9.699306488E0
3.952318851E0,-1.680957973E-1,5.745167255E0,9.368498802E0
3.954427066E0,-1.046859920E-1,5.907878876E0,9.567701340E0
3.956535841E0,-2.285145670E-1,5.870192051E0,9.678369522E0
3.958643467E0,-3.918247223E-1,5.669793129E0,9.891330719E0
3.960751620E0,-2.871387303E-1,5.348556995E0,1.010429192E1
3.962859989E0,-3.176472187E-1,5.137988567E0,9.938589096E0
3.964968570E0,-2.763710022E-1,4.888536453E0,9.707083702E0
3.967077569E0,-1.609173268E-1,5.003392220E0,9.729216576E0
3.969185551E0,-2.033899166E-2,5.333003521E0,9.706484795E0
3.971294011E0,1.304088384E-1,5.523232937E0,8.905488014E0
3.973390843E0,1.339980662E-1,5.087738991E0,9.101100922E0
3.975509444E0,2.949153781E-1,4.992026329E0,9.937990189E0
3.977616733E0,1.046859920E-1,5.342574596E0,9.811170578E0
3.979728418E0,-7.477571070E-2,5.195415974E0,1.060678482E1
3.981831822E0,-2.267199457E-1,5.550152302E0,1.053200912E1
3.983933292E0,-5.120640397E-1,6.086144447E0,9.170493126E0
3.986050724E0,-3.684946895E-1,5.727221012E0,9.617950439E0
3.988159001E0,-5.874379873E-1,6.096313953E0,9.596415520E0
3.990267461E0,-7.082754970E-1,5.785845280E0,9.680762291E0
3.992364883E0,-6.532405615E-1,5.991627693E0,9.970293999E0
3.994471104E0,-5.653043389E-1,6.110072613E0,9.141778946E0
3.996581944E0,-6.334998012E-1,5.694319725E0,9.246464729E0
3.998702865E0,-6.281159520E-1,5.368896008E0,9.832706451E0
4.000812006E0,-5.647061467E-1,5.263611794E0,1.028734303E1
4.002916926E0,-3.613162339E-1,5.402395248E0,1.057208824E1
4.005014449E0,-3.511467278E-1,5.679962635E0,1.044048309E1
4.007132990E0,-2.925225794E-1,5.472983360E0,9.739386559E0
4.009242813E0,-1.776670814E-1,5.716453075E0,9.435498238E0
4.011358638E0,-1.680957973E-1,5.907878876E0,9.185447693E0
4.013457931E0,-4.007977992E-2,5.931209087E0,8.835497856E0
4.015564203E0,-6.939185411E-2,5.706283569E0,8.924032211E0
4.017663843E0,-4.492524564E-1,5.783452511E0,8.446663857E0
4.019780818E0,-4.660021961E-1,5.462814331E0,8.315656662E0
4.021881170E0,1.435693651E-1,4.613960266E0,9.635896683E0
4.023988774E0,4.588237405E-1,3.829114437E0,1.155434227E1
4.026094782E0,6.382854581E-1,3.499503136E0,1.255573845E1
4.028204808E0,8.901300430E-1,3.665206194E0,1.185045433E1
4.030313858E0,6.520441771E-1,4.640879631E0,9.719645500E0
4.032422379E0,1.142572835E-1,5.177470207E0,7.503891945E0
4.034534083E0,2.350948304E-1,4.933402061E0,8.112865448E0
4.036649205E0,4.564309120E-1,4.398007870E0,1.031605625E1
4.038750138E0,2.829512656E-1,4.542773724E0,1.100339508E1
4.040867407E0,9.631111473E-2,5.327021599E0,8.994022369E0
4.042973181E0,5.264209956E-2,5.149952412E0,9.005388260E0
4.045083908E0,-4.091726840E-1,4.821537495E0,8.828319550E0
4.047189652E0,-7.369893789E-1,4.377070904E0,8.891130447E0
4.049298224E0,-5.808576941E-1,3.720839262E0,9.102297783E0
4.051407223E0,-3.056831062E-1,2.763710260E0,1.091246796E1
4.053514594E0,7.645068169E-1,2.229512453E0,1.202752304E1
4.055622768E0,8.255237937E-1,2.581855536E0,1.007318497E1
4.057730729E0,9.236295223E-1,3.077169895E0,7.625925541E0
4.059838395E0,1.049252748E0,2.947359324E0,8.051848412E0
4.061943793E0,7.734799385E-1,2.547159672E0,9.084351540E0
4.064054561E0,6.825526357E-1,2.480758905E0,9.147761345E0
4.066163030E0,1.106680512E0,1.819741607E0,1.056730270E1
4.068274207E0,7.938188910E-1,1.486541033E0,1.180499077E1
4.070382279E0,1.657029688E-1,1.511665702E0,1.038245773E1
4.072495113E0,6.580262445E-3,2.105085611E0,9.421739578E0
4.074596736E0,3.589233849E-3,2.124826431E0,9.827322960E0
4.076705197E0,2.865405083E-1,2.167897224E0,1.113559818E1
4.078811987E0,3.343969584E-1,2.728415966E0,1.169432259E1
4.080921759E0,-1.112662554E-1,3.586242914E0,1.060798073E1
4.083030107E0,-3.140579760E-1,4.460819721E0,7.837092400E0
4.085139289E0,-3.146561682E-1,4.010370731E0,7.057630539E0
4.087246457E0,2.703889608E-1,2.826521635E0,8.720642090E0
4.089351335E0,3.912265003E-1,2.094916344E0,9.873982430E0
4.091446367E0,8.733802438E-1,1.507478237E0,8.907281876E0
4.093561053E0,4.965106845E-1,7.585247755E-1,1.014915752E1
4.095679644E0,-2.434697002E-1,9.864411354E-1,1.047517967E1
4.097791195E0,-2.392822690E-2,9.379864931E-1,1.037886810E1
4.099898994E0,1.133001566E0,5.264210105E-1,1.019701385E1
4.102005073E0,1.225723386E0,7.932206988E-1,9.214161873E0
4.104110124E0,1.329811215E0,7.064808607E-1,8.855836868E0
4.106211545E0,1.303490162E0,1.057627559E0,1.041595650E1
4.108328743E0,7.848458290E-1,1.495514154E0,1.074796104E1
4.110437131E0,1.214357466E-1,2.267199516E0,9.223134995E0
4.112547625E0,-1.304088384E-1,1.875374794E0,8.931808472E0
4.114652767E0,-3.140579760E-1,1.612762451E0,8.891729355E0
4.116758390E0,2.991028363E-3,1.052243710E0,9.708877563E0
4.118871274E0,7.561319470E-1,2.853440940E-1,1.219382381E1
4.120978005E0,9.583254457E-1,1.126421213E0,1.137727356E1
4.123085956E0,6.544370055E-1,1.532602906E0,9.233304024E0
4.125190864E0,6.340979934E-1,1.709671736E0,8.715258598E0
4.127292813E0,4.582255483E-1,2.193620205E0,8.386244774E0
4.129409554E0,8.973085135E-2,1.889133453E0,8.877969742E0
4.131510730E0,3.212364316E-1,9.284151793E-1,1.167817116E1
4.133630623E0,4.899304509E-1,9.182456732E-1,1.195454216E1
4.135737109E0,-2.751746178E-1,1.517049551E0,9.045467377E0
4.137846616E0,-1.112662554E-1,9.930213690E-1,7.543971539E0
4.139952604E0,2.129612118E-1,8.871390224E-1,8.461619377E0
4.142060484E0,-5.563312769E-2,6.837490797E-1,9.865009308E0
4.144167426E0,-2.416750938E-1,5.072783828E-1,1.027418232E1
4.146270841E0,3.349951655E-2,1.316052489E-2,1.016291618E1
4.148385415E0,-4.648058116E-1,3.020938635E-1,9.836894035E0
4.150494038E0,-3.457628787E-1,6.699903309E-2,9.862616539E0
4.152604979E0,-5.174478889E-1,-1.663011760E-1,1.045364380E1
4.154710355E0,-1.034895778E0,3.948157430E-1,9.685547829E0
4.156818490E0,-8.303094506E-1,4.277170599E-1,9.273384094E0
4.158925739E0,-4.911268353E-1,1.878365725E-1,1.054576778E1
4.161032520E0,-7.980063558E-1,3.708875179E-1,1.031067276E1
4.163143177E0,-9.553344250E-1,9.750752151E-2,9.606584549E0
4.165251555E0,-1.216750264E0,4.917250574E-1,9.675378799E0
4.167360554E0,-1.275972724E0,4.863412082E-1,9.217152596E0
4.169466520E0,-1.099501967E0,-3.619144261E-1,8.736793518E0
4.171566150E0,-1.005583763E0,-1.075573802E0,9.082556725E0
4.173685627E0,-5.503492355E-1,-1.651047587E0,9.879366875E0
4.175792489E0,2.237289101E-1,-2.103291035E0,1.121456146E1
4.177903533E0,6.837490797E-1,-2.257628202E0,1.132403278E1
4.180008687E0,2.099701911E-1,-1.697707653E0,9.590433121E0
4.182113616E0,-4.007977843E-1,-1.590628862E0,8.760123253E0
4.184215483E0,-4.522434771E-1,-1.402194023E0,1.007797050E1
4.186333810E0,-4.001995921E-1,-1.460219979E0,1.008754253E1
4.188442504E0,-2.368894368E-1,-2.216351986E0,1.108833981E1
4.190552958E0,-4.791627228E-1,-1.497308731E0,1.076231766E1
4.192656168E0,-4.564309120E-1,-5.186443329E-1,8.061419487E0
4.194756987E0,-2.626122832E-1,-5.724828243E-1,7.478168964E0
4.196875213E0,6.340979785E-2,-1.214357495E0,8.286344528E0
4.198983916E0,2.542374134E-1,-1.746162295E0,8.734998703E0
4.201094401E0,4.785645306E-1,-2.152942181E0,1.019581699E1
4.203199097E0,6.131607890E-1,-2.325225353E0,1.059362411E1
4.205300933E0,6.364908218E-1,-2.846860647E0,1.104287624E1
4.207416473E0,9.924231768E-1,-2.895913601E0,1.147238827E1
4.209521931E0,9.260223508E-1,-2.139781713E0,1.067198944E1
4.211624674E0,-6.759724021E-2,-7.974081635E-1,8.583653450E0
4.213738576E0,-3.529413342E-1,-4.187439680E-1,7.395616531E0
4.215839171E0,-3.858426511E-1,-7.154539824E-1,7.862216949E0
4.217960297E0,-1.806581169E-1,-1.414158225E0,8.618947029E0
4.220066924E0,3.349951804E-1,-2.459223509E0,9.396016121E0
4.222176585E0,5.282155871E-1,-2.986242771E0,1.035194874E1
4.224282378E0,5.904290080E-1,-2.946761131E0,1.164646626E1
4.226390340E0,2.973082066E-1,-2.778665304E0,1.120140076E1
4.228498942E0,3.260220885E-1,-2.615953445E0,1.103270721E1
4.230607127E0,4.612165689E-1,-2.329412937E0,1.095793152E1
4.232715261E0,2.739782035E-1,-1.764108539E0,1.012582684E1
4.234823781E0,2.201396823E-1,-8.697910309E-1,8.740981102E0
4.236930491E0,2.446661144E-1,-9.619147182E-1,7.756932735E0
4.239031576E0,-1.495514158E-2,-1.348355532E0,8.020143509E0
4.241147034E0,1.058823988E-1,-2.003988981E0,9.025128365E0
4.243246420E0,4.223332107E-1,-2.517249346E0,9.735796928E0
4.245366892E0,6.406782866E-1,-3.288336515E0,1.013420200E1
4.247471630E0,7.238288522E-1,-3.325425386E0,1.190309620E1
4.249578695E0,6.089733839E-1,-2.899502754E0,1.134018517E1
4.251688213E0,1.100698411E-1,-2.112862349E0,1.030229759E1
4.253797202E0,-3.523431420E-1,-1.445863128E0,9.963115692E0
4.255905975E0,-7.651050687E-1,-7.274180651E-1,8.910871506E0
4.258014262E0,-7.818548083E-1,-9.954141974E-1,8.679366112E0
4.260120667E0,-5.192425251E-1,-1.652244091E0,9.306285858E0
4.262231029E0,-1.824527234E-1,-1.738983870E0,9.783653259E0
4.264338938E0,-6.640082598E-2,-1.984248161E0,9.144769669E0
4.266447866E0,4.683950245E-1,-2.900100946E0,9.787242889E0
4.268556102E0,9.343972206E-1,-3.446861029E0,1.080419254E1
4.270662365E0,5.144568682E-1,-3.283550978E0,9.781260490E0
4.272761680E0,4.013960063E-1,-3.202194929E0,8.867800713E0
4.274880199E0,6.592226624E-1,-3.695116282E0,1.052064323E1
4.276988252E0,4.995017350E-1,-3.290729284E0,1.200419331E1
4.279099346E0,-9.990034252E-2,-2.347358942E0,9.535398483E0
4.281207796E0,-4.097708762E-1,-2.060220242E0,8.382058144E0
4.283324556E0,-5.982056856E-1,-1.829312921E0,8.863613129E0
4.285421774E0,-1.968096644E-1,-1.917249203E0,8.724231720E0
4.287530793E0,-1.196411327E-1,-3.396611691E0,9.406784058E0
4.289635185E0,-1.274178028E-1,-4.218546391E0,1.076770210E1
4.291743532E0,-2.087737769E-1,-4.887938499E0,1.166321564E1
4.293843854E0,-3.948157430E-1,-4.250849247E0,1.110808086E1
4.295962974E0,-6.550351977E-1,-3.523431301E0,9.744770050E0
4.298070996E0,-6.017948985E-1,-3.266202927E0,8.360522270E0
4.300181795E0,-7.280163169E-1,-3.586841106E0,8.373682976E0
4.302287539E0,-4.079762697E-1,-4.181457520E0,8.770293236E0
4.304396659E0,-1.363908947E-1,-5.254040241E0,9.783055305E0
4.306504193E0,3.110669367E-2,-6.354738712E0,1.101177025E1
4.308613151E0,4.666004330E-2,-6.493522644E0,1.156750298E1
4.310719851E0,-3.355933726E-1,-6.019145489E0,9.972686768E0
4.312826988E0,-6.161518097E-1,-5.722435474E0,8.852845192E0
4.314932975E0,-6.305087805E-1,-5.899504185E0,9.026325226E0
4.317035606E0,-6.245267391E-1,-6.052046776E0,9.548559189E0
4.319153974E0,-4.115654826E-1,-6.842874527E0,9.803992271E0
4.321263033E0,-4.779663086E-1,-7.105486870E0,1.038544846E1
4.323372256E0,-6.203392744E-1,-7.109076023E0,1.075394344E1
