"Time (s)","Gyroscope x (rad/s)","Gyroscope y (rad/s)","Gyroscope z (rad/s)"
1.367649995E-2,-3.392086364E-3,2.122195438E-4,2.557134721E-4
2.372649999E-2,-7.530674338E-6,4.417542368E-4,2.591712633E-3
3.377649997E-2,-5.223196931E-4,-1.531382091E-3,-5.068753380E-4
4.382549995E-2,-1.040654257E-3,-1.651333645E-3,-1.254612347E-3
5.387549999E-2,6.371373311E-4,-1.197797712E-3,-5.512714852E-4
6.392549997E-2,1.070956234E-3,1.724936301E-3,1.035176683E-3
7.397549995E-2,7.745460607E-4,3.041401505E-4,2.105767373E-3
8.402449999E-2,5.058674142E-4,1.937293680E-3,1.356156077E-3
9.407449997E-2,2.699112520E-4,-1.748254988E-3,-6.398831028E-4
1.041245000E-1,-1.618432347E-3,2.925614128E-3,-2.502568532E-4
1.141735000E-1,-2.030423377E-3,-3.277035430E-4,-2.177662682E-4
1.242235000E-1,1.786823850E-3,8.576037362E-4,6.940395106E-4
1.342734999E-1,2.239365131E-6,2.298906446E-3,1.330801053E-3
1.443225000E-1,3.209551796E-4,2.476715250E-3,-9.246668778E-4
1.543725000E-1,2.091957256E-3,1.935294596E-3,2.447271254E-4
1.644224999E-1,7.094219327E-4,1.975069521E-3,1.380711561E-3
1.744715000E-1,4.217028618E-6,4.131963477E-3,3.149583237E-3
1.845215000E-1,4.377542064E-4,4.698919598E-3,4.494742025E-4
1.945714999E-1,5.908859894E-4,7.771486416E-4,1.282777404E-3
2.046205000E-1,1.426577568E-3,5.263172090E-3,8.830253500E-4
2.146705000E-1,-2.898129867E-3,1.215167111E-3,3.975488245E-3
2.247204999E-1,1.291157678E-3,5.269731395E-3,4.770723172E-4
2.347705000E-1,-7.813144475E-4,1.295762602E-3,1.633150503E-3
2.448195000E-1,1.318616327E-3,2.206553007E-3,1.480956562E-4
2.548695000E-1,2.430752385E-3,-3.769793548E-4,-3.456545528E-4
2.649195000E-1,-1.090952195E-3,2.580685541E-4,-2.576926025E-3
2.749685000E-1,-1.059260685E-3,2.333469922E-3,8.974338416E-4
2.850185000E-1,-6.567412056E-4,-2.400372643E-3,1.666676486E-3
2.950685000E-1,9.097303264E-4,-1.421927474E-3,7.196564693E-4
3.051175000E-1,2.896755934E-3,3.256564960E-4,8.985565510E-4
3.151675000E-1,8.887327276E-4,-2.651757561E-3,-1.150212949E-3
3.252175000E-1,-5.743759684E-4,9.515304118E-4,2.895249054E-4
3.352665000E-1,8.163265884E-4,1.157925231E-3,-6.494182162E-5
3.453165000E-1,-1.619235147E-3,-2.425669692E-3,-5.671300460E-4
3.553665000E-1,1.108108088E-3,-9.108637460E-4,-2.311766846E-3
3.654155000E-1,8.482336998E-4,1.528351568E-4,9.658972267E-4
3.754655000E-1,3.749480937E-3,-2.857875079E-4,-1.238401281E-3
3.855155000E-1,-2.509355545E-5,-3.937494941E-3,-1.462278655E-3
3.955645000E-1,4.311059602E-4,-1.334787346E-3,-1.956561347E-3
4.056145000E-1,5.013113841E-4,-6.023840979E-4,-3.675275948E-4
4.156645000E-1,-1.961705275E-4,-2.288431395E-3,-2.694863826E-3
4.257145000E-1,-2.037027385E-3,-1.166811213E-3,-2.418866381E-3
4.357635000E-1,1.384069677E-3,-8.280570619E-4,2.000649460E-3
4.458135000E-1,-1.932771411E-3,3.187667578E-3,-2.319582738E-3
4.558635000E-1,-1.785475761E-4,-6.330470555E-3,-2.548340708E-4
4.659125000E-1,-1.294564456E-3,-2.702012658E-3,-1.586081227E-3
4.759625000E-1,1.103345770E-3,-2.271645702E-3,-1.108786091E-5
4.860125000E-1,-4.280288704E-4,3.844167339E-3,1.441982109E-3
4.960615000E-1,1.031649765E-3,-5.966536701E-4,-2.533863299E-4
5.061115000E-1,5.770553835E-4,-2.689176239E-3,-4.532362334E-3
5.161615000E-1,-5.015251227E-4,-3.157360014E-3,1.694485545E-4
5.262105000E-1,-2.817999572E-3,-1.425551064E-2,9.541623294E-4
5.362605000E-1,-1.214776654E-3,-4.056669306E-3,-1.177698141E-3
5.463105000E-1,9.425487369E-4,1.122714020E-4,1.397281885E-4
5.563595000E-1,-4.887111019E-3,-1.220724545E-2,-1.525546424E-3
5.664095000E-1,-3.324359888E-3,-9.394012392E-3,-1.868384890E-2
5.764594999E-1,5.753824022E-3,-1.882301178E-3,-1.449778676E-1
5.865085000E-1,7.174164522E-3,1.219854131E-2,-2.065294981E-1
5.965585000E-1,5.558425095E-3,1.698229695E-3,-2.737141252E-1
6.066084999E-1,4.505144898E-3,-7.825046778E-4,-3.621537089E-1
6.166585000E-1,4.913141485E-3,-1.375058200E-3,-4.342678487E-1
6.267075000E-1,7.053643465E-3,-1.004906371E-4,-4.685113430E-1
6.367574999E-1,3.594197333E-3,-3.165523056E-3,-4.773176312E-1
6.468075000E-1,9.896946140E-4,-1.151263248E-3,-4.560379982E-1
6.568565000E-1,3.563640174E-3,-1.685568132E-4,-3.729114234E-1
6.669064999E-1,6.050202064E-4,-6.435605697E-3,-2.848969698E-1
6.769565000E-1,-1.184624154E-3,-1.116191782E-2,-2.190905511E-1
6.870055000E-1,-3.532599658E-4,-1.098400913E-2,-2.035158724E-1
6.970555000E-1,1.849174034E-3,-1.072541624E-2,-2.475728095E-1
7.071055000E-1,-2.117296215E-3,-7.620483637E-3,-2.652375996E-1
7.171545000E-1,1.648147590E-3,-1.072759368E-2,-2.625715137E-1
7.272010000E-1,2.332818694E-4,-5.999309476E-3,-2.550644577E-1
7.372510000E-1,-1.784428023E-4,-8.168188855E-3,-2.381142229E-1
7.473000000E-1,3.815903328E-4,-1.038489118E-2,-2.506225109E-1
7.573500000E-1,9.094285779E-4,-1.289997995E-2,-2.708550990E-1
7.674000000E-1,3.047861159E-3,-1.201773249E-2,-2.983192205E-1
7.774490000E-1,-1.058199909E-3,-8.876534179E-3,-2.454762310E-1
7.874990000E-1,-5.812281743E-4,-6.542273797E-3,-1.952436864E-1
7.975490000E-1,6.057429127E-4,-7.082895376E-3,-3.509166539E-1
8.075990000E-1,3.849663306E-3,-1.189205796E-2,-5.920627117E-1
8.176480000E-1,3.308242653E-3,-8.306112140E-3,-5.729063153E-1
8.276980000E-1,2.924899571E-3,-8.399002254E-3,-4.201737046E-1
8.377480000E-1,4.115066491E-3,-1.751753036E-3,-3.753364682E-1
8.477970000E-1,4.424754996E-3,-1.746231690E-3,-3.988381624E-1
8.578469999E-1,2.030572388E-3,-9.193201549E-4,-1.569786370E-1
8.678970000E-1,1.385408454E-3,2.679315163E-3,2.256922722E-1
8.779460000E-1,2.549210098E-3,-3.696292639E-3,2.467006147E-1
8.879959999E-1,1.487752423E-3,-9.210800752E-3,6.184951402E-3
8.980460000E-1,-1.292055007E-3,4.072780255E-3,-1.591134518E-1
9.080950000E-1,9.289224632E-3,7.546486333E-3,-2.429762781E-1
9.181449999E-1,3.933075815E-3,-3.819633275E-5,-2.209753692E-1
9.281950000E-1,6.089077797E-3,-3.678142093E-3,-1.660701931E-1
9.382440000E-1,6.981236394E-3,-1.576276869E-2,-4.511446878E-2
9.482940000E-1,3.721886314E-3,-1.137953345E-2,5.600563809E-2
9.583440000E-1,2.199357376E-3,3.298744559E-3,-1.189094484E-1
9.683930000E-1,3.060227260E-3,-4.895962309E-3,-2.099552900E-1
9.784430000E-1,2.178188413E-3,-5.934061948E-3,1.770680696E-1
9.884930000E-1,-1.651267521E-4,-6.919165608E-3,4.429601729E-1
9.985430000E-1,-3.466647584E-3,-5.082916003E-3,4.968399107E-1
1.008592000E0,6.305482239E-4,1.396413893E-3,3.954676092E-1
1.018642000E0,3.398904577E-3,1.487229019E-4,1.344794333E-1
1.028692000E0,4.557342734E-3,6.318547763E-3,8.890108019E-2
1.038741000E0,2.996463794E-3,2.814279869E-4,2.265992910E-1
1.048791000E0,7.055998780E-3,2.989887958E-3,3.902241886E-1
1.058841000E0,7.192729972E-4,-2.872756310E-2,3.260292113E-1
1.068890000E0,5.846959539E-3,-2.756665461E-2,2.088563591E-1
1.078940000E0,-3.439217107E-3,-2.309946716E-2,1.710730195E-1
1.088990000E0,-7.558101788E-4,-1.313160360E-2,2.187674195E-1
1.099039000E0,-3.798205173E-3,-1.790532377E-3,2.033008486E-1
1.109089000E0,3.727196716E-3,6.368532777E-4,1.364964992E-1
1.119139000E0,2.786694095E-4,-1.300330274E-3,1.628324986E-1
1.129188000E0,2.770000137E-4,-6.438475102E-3,2.318026125E-1
1.139238000E0,-1.203983556E-3,5.785966292E-3,1.721283495E-1
1.149288000E0,-2.110595815E-3,4.553311504E-3,3.297564760E-2
1.159338000E0,-1.562250778E-3,6.118451245E-3,6.286246702E-3
1.169387000E0,-1.072428841E-2,9.506591596E-4,3.164063692E-1
1.179437000E0,-1.422767621E-2,-1.696522813E-3,5.011863112E-1
1.189487000E0,-9.317118675E-3,-8.936695755E-3,6.526695490E-1
1.199536000E0,-1.826986670E-2,-2.353001945E-2,8.702899814E-1
1.209586000E0,-2.297434211E-2,-1.531751454E-2,1.115540862E0
1.219636000E0,-2.003607526E-2,-1.363998838E-2,1.062898755E0
1.229685000E0,-2.160437033E-2,-7.821409032E-3,8.558881283E-1
1.239735000E0,-6.797195878E-3,1.670870185E-2,4.588579237E-1
1.249785000E0,-1.587705500E-2,4.724300001E-3,1.888318807E-1
1.259834000E0,3.342711367E-3,1.147221774E-2,1.393599361E-1
1.269884000E0,1.158392057E-3,6.242068950E-3,2.493519634E-1
1.279934000E0,-1.177178789E-2,-1.399395987E-2,4.075914025E-1
1.289983000E0,1.544660423E-3,-2.253157459E-2,5.549243689E-1
1.300033000E0,-4.381937906E-3,-2.094299905E-2,6.236608028E-1
1.310083000E0,-5.529192276E-4,-1.709905639E-2,6.861265898E-1
1.320133000E0,2.509183716E-3,-3.158079460E-2,7.884950042E-1
1.330182000E0,-1.129873563E-3,-2.079029568E-2,8.827452660E-1
1.340232000E0,4.711504560E-3,-3.260087967E-2,9.040963650E-1
1.350282000E0,1.657121815E-3,-1.967507601E-2,8.510233760E-1
1.360331000E0,2.493101917E-2,-7.080058008E-2,7.085520029E-1
1.370381000E0,1.667783260E-1,-3.531591296E-1,4.231790304E-1
1.380431000E0,1.868793219E-1,-3.870081604E-1,1.913918704E-1
1.390480000E0,1.674945094E-2,-6.537962705E-2,2.075004391E-2
1.400530000E0,2.934037242E-3,-9.084666148E-3,-1.909457333E-2
1.410580000E0,-3.773405682E-3,-9.822739288E-3,1.276337774E-3
1.420629000E0,-5.292738788E-3,-2.916097175E-3,3.186356975E-3
1.430679000E0,-8.602477610E-4,-2.626906149E-3,1.099221408E-3
1.440729000E0,-3.121271497E-3,-3.377917688E-3,9.467708878E-5
1.450778000E0,2.528359182E-4,-2.748671919E-3,7.459823973E-5
1.460828000E0,1.118896063E-3,1.336616930E-3,-2.672185889E-3
1.470878000E0,1.357714646E-4,1.037641894E-3,-1.322345342E-4
1.480928000E0,8.455039933E-4,8.449656889E-5,3.084864235E-3
1.490977000E0,3.994653933E-3,1.722384710E-3,6.221062038E-3
1.501027000E0,1.737890765E-3,-1.320037246E-2,5.808186159E-2
1.511077000E0,-1.082886010E-4,2.515065717E-3,1.811692715E-1
1.521126000E0,-8.269279264E-3,2.775730565E-2,-5.755327642E-2
1.531176000E0,-1.023367643E-1,1.867110580E-1,8.374609053E-2
1.541226000E0,-1.446496099E-1,3.077330589E-1,2.835641503E-1
1.551275000E0,-1.076626629E-1,2.304419577E-1,3.182812631E-1
1.561325000E0,-2.374698780E-2,6.751908362E-2,4.416474104E-1
1.571375000E0,1.428407151E-3,1.319991797E-2,3.242070675E-1
1.581424000E0,8.664214984E-3,-1.002178155E-2,2.579936981E-1
1.591474000E0,-1.041460410E-2,2.306966856E-2,1.140004694E-1
1.601524000E0,-9.931395762E-4,2.418633178E-2,-2.113296837E-1
1.611573000E0,1.541009638E-3,1.807286963E-2,-5.904727578E-1
1.621623000E0,1.199858729E-3,1.239740755E-2,-7.256007195E-1
1.631673000E0,-4.865530878E-3,2.729103155E-2,-6.463627219E-1
1.641723000E0,-3.330972977E-4,2.225712314E-2,-6.201851964E-1
1.651772000E0,6.398372352E-5,2.987566218E-2,-6.526842117E-1
1.661822000E0,1.213822328E-2,4.247960448E-2,-6.669305563E-1
1.671872000E0,5.221420899E-3,1.315474883E-2,-5.929110646E-1
1.681921000E0,8.178328164E-3,2.082123188E-3,-4.933863878E-1
1.691971000E0,9.815565310E-3,7.068785839E-3,-4.580637217E-1
1.702021000E0,1.375358272E-2,-9.220293723E-4,-3.597099781E-1
1.712070000E0,1.173760369E-2,-1.220166031E-2,-1.070564762E-1
1.722120042E0,2.361412160E-3,-1.369675901E-2,1.081711147E-3
1.732170042E0,6.502823904E-3,-2.408637665E-4,1.477140039E-1
1.742219042E0,7.492453791E-3,8.656224236E-3,7.743903995E-2
1.752269042E0,6.082191598E-3,7.302409038E-3,3.048715740E-2
1.762319042E0,1.870179549E-4,2.300680429E-2,2.010642365E-2
1.772368042E0,5.673551932E-4,-1.476480160E-3,6.158829480E-2
1.782418042E0,-2.164515201E-3,2.608542796E-3,1.536423117E-1
1.792468042E0,-2.042755112E-2,5.741972104E-2,2.717264295E-1
1.802517042E0,6.288747769E-3,-5.127811339E-3,2.475689203E-1
1.812567042E0,-9.500686079E-3,1.879622042E-2,1.916391850E-1
1.822617042E0,-1.374049578E-3,-8.157366887E-3,5.380096845E-3
1.832667042E0,-5.291104317E-3,9.270219132E-3,-8.568844199E-2
1.842716042E0,-3.447397845E-3,-9.243544191E-3,-1.521601528E-1
1.852766042E0,-5.576633383E-3,7.547880989E-3,-1.978648752E-1
1.862816042E0,-6.602749228E-3,1.012369059E-2,-5.001823902E-1
1.872865042E0,-5.103575997E-3,3.070245683E-2,-5.453679562E-1
1.882915042E0,-2.635358367E-3,3.407907858E-2,-5.219435692E-1
1.892965042E0,3.473510966E-3,5.672189407E-3,-6.049194336E-1
1.903014042E0,-1.816059463E-3,1.237137150E-2,-5.566925406E-1
1.913064042E0,3.611691296E-3,9.796289727E-3,-4.449421167E-1
1.923114042E0,-5.749586504E-3,1.850908808E-2,-4.563010335E-1
1.933163042E0,-4.895720631E-4,1.536898874E-2,-3.581970930E-1
1.943213042E0,4.004561342E-4,6.279087160E-3,-4.047502279E-1
1.953263042E0,3.660165705E-3,-2.041123807E-4,-2.493603826E-1
1.963312042E0,-5.879011005E-3,2.100054640E-3,-1.847904474E-1
1.973362042E0,-8.030772209E-3,1.681656018E-2,-3.608920872E-1
1.983412042E0,-1.335318666E-3,3.053370304E-2,-2.081280947E-1
1.993461042E0,-5.905800033E-3,1.416770089E-2,-3.480924666E-1
2.003511042E0,6.450734567E-3,-2.261340152E-3,-2.404943556E-1
2.013561042E0,3.178166226E-3,4.620925058E-3,-3.108810484E-1
2.023611042E0,5.921222270E-3,1.468287967E-2,-3.327189684E-1
2.033660042E0,4.059406929E-3,-6.009880919E-3,-3.982287347E-1
2.043710042E0,6.233344786E-3,6.674754899E-3,-2.588244975E-1
2.053760042E0,2.477337141E-3,2.779397182E-4,-3.248513639E-1
2.063809042E0,1.229454763E-2,4.032362625E-2,-1.010545373E0
2.073859042E0,2.229821682E-2,1.594778337E-2,-1.010254860E0
2.083909042E0,5.689946003E-3,7.077593356E-3,-8.081380725E-1
2.093958042E0,1.742193475E-2,1.138621196E-2,-8.455025554E-1
2.104008042E0,1.475105062E-2,2.390706353E-2,-7.594038844E-1
2.114058042E0,1.682302542E-2,9.931817651E-3,-3.852071464E-1
2.124107042E0,-3.178785555E-4,1.352788415E-2,-2.274649441E-1
2.134157042E0,-1.470876392E-3,-1.060642581E-2,-1.826322451E-2
2.144207042E0,-6.193726324E-3,-2.030248288E-3,2.168334424E-1
2.154256042E0,-1.145004481E-2,-1.635466516E-2,1.883143783E-1
2.164306042E0,6.892743520E-3,-1.595691778E-3,-8.617737144E-2
2.174356042E0,-1.900365110E-3,-9.260475636E-3,-5.406540260E-2
2.184405042E0,-7.476491854E-3,2.885540016E-4,-1.489096284E-1
2.194455042E0,-3.251616843E-3,-5.918784067E-3,-1.173309907E-1
2.204505042E0,-6.455665920E-3,-1.517167035E-2,2.534334175E-2
2.214555042E0,-5.317125935E-3,2.300636843E-3,5.982415751E-2
2.224604042E0,2.340794075E-3,1.129386574E-2,7.732724398E-2
2.234654042E0,-1.102864742E-3,-6.468211766E-3,2.133148015E-1
2.244704042E0,6.453322247E-3,3.211326897E-2,-2.351029366E-1
2.254753042E0,6.120218895E-4,2.145795152E-2,-3.929553926E-1
2.264803042E0,7.825192995E-3,2.273946442E-2,-2.746543288E-1
2.274853042E0,2.601250540E-3,1.094708592E-2,-3.814134300E-1
2.284902042E0,-2.744246041E-3,1.039327122E-3,-3.154746294E-1
2.294952042E0,2.313095145E-3,1.400747616E-2,-3.037787080E-1
2.305002042E0,7.959263399E-3,1.036693528E-2,-3.393814266E-1
2.315051042E0,5.600768141E-3,2.162491530E-2,-6.170271635E-1
2.325101042E0,5.525399931E-3,8.335475810E-3,-8.156720996E-1
2.335151042E0,1.196264382E-2,8.094972931E-3,-6.115661263E-1
2.345200042E0,1.421354804E-2,1.407909580E-2,-8.669001460E-1
2.355250042E0,-2.033525612E-3,1.145374402E-2,-5.894618630E-1
2.365300042E0,2.117011230E-3,3.432843462E-2,-7.943338156E-1
2.375349042E0,1.441341359E-2,6.565133482E-2,-7.439762354E-1
2.385399042E0,2.569776028E-2,7.233400643E-2,-8.350262642E-1
2.395449042E0,3.738323599E-2,1.062473506E-1,-9.614269137E-1
2.405499042E0,2.377155423E-2,6.546449661E-2,-9.532797933E-1
2.415548042E0,-2.508869581E-2,-8.146395534E-2,-6.431143880E-1
2.425598042E0,-6.062007509E-3,-1.025502756E-2,-3.856772780E-1
2.435648042E0,7.488684263E-3,1.898462884E-3,-6.505048275E-1
2.445697042E0,2.701951005E-2,7.041014731E-2,-6.718234420E-1
2.455747042E0,2.978402376E-2,8.406887203E-2,-7.021073699E-1
2.465797042E0,5.547047779E-2,1.289292872E-1,-7.761490941E-1
2.475846042E0,4.333331063E-2,7.944239676E-2,-8.418727517E-1
2.485896042E0,2.466801554E-2,-1.038139835E-1,-6.626291871E-1
2.495946042E0,1.583509445E-1,-1.097149253E-1,-3.850657344E-1
2.505995042E0,1.569930017E-1,-9.212341160E-2,-4.564872086E-1
2.516045042E0,7.414209191E-3,2.250103652E-2,-7.570526600E-1
2.526095042E0,8.103702217E-3,-1.160084270E-3,-7.378991842E-1
2.536144042E0,-7.654584013E-3,-6.327191368E-4,-5.640062690E-1
2.546194042E0,-8.964059874E-3,-4.055518657E-4,-5.348113775E-1
2.556244042E0,-1.565993018E-2,-2.765959688E-2,-4.868271053E-1
2.566293042E0,3.447983414E-3,2.596182004E-2,-3.652631342E-1
2.576343042E0,-1.809548214E-2,-4.850792140E-2,-2.025329918E-1
2.586393042E0,-8.970960975E-3,-2.332587168E-2,-5.239365157E-3
2.596442042E0,2.286813408E-2,-1.974629797E-2,1.989336312E-1
2.606492042E0,3.267534077E-3,2.150479006E-3,4.296507537E-1
2.616542042E0,5.798344500E-4,5.307319574E-3,4.046750069E-1
2.626591042E0,-2.232729923E-3,-1.398701593E-2,-3.388011828E-4
2.636641042E0,-3.855232848E-3,-2.216827311E-2,-2.700843848E-2
2.646691042E0,-2.662669402E-3,-7.115020882E-3,-1.947380453E-1
2.656741042E0,2.901393455E-3,1.825890504E-2,-3.146102726E-1
2.666790042E0,4.132839385E-3,2.520043403E-2,-1.901604980E-1
2.676840042E0,7.772088051E-3,2.873052470E-2,1.031217873E-1
2.686890042E0,8.021892980E-3,1.505705714E-2,2.990691960E-1
2.696939042E0,8.409298956E-3,2.792561799E-2,2.834967375E-1
2.706989042E0,3.381346166E-2,8.910801262E-2,2.329001129E-1
2.717039042E0,-1.649695635E-1,-3.494205177E-1,3.947197497E-1
2.727087625E0,1.196526736E-2,4.559099674E-2,9.081498533E-2
2.737137625E0,4.183971789E-3,-3.611771856E-3,1.846176386E-1
2.747187625E0,3.867588472E-3,1.716680592E-3,3.529552519E-1
2.757236625E0,-7.000784390E-4,-1.404804178E-2,4.275222719E-1
2.767286625E0,5.589242559E-3,-4.488624167E-3,3.287927806E-1
2.777336625E0,-7.397592999E-4,-1.376920938E-2,1.755901575E-1
2.787385625E0,6.477141287E-3,-2.786026150E-2,3.260424361E-2
2.797435625E0,-9.656405076E-3,-1.528167725E-2,1.629315168E-1
2.807485625E0,-3.609733284E-2,2.099031024E-2,3.309900463E-1
2.817534625E0,-6.244204566E-2,8.887085319E-2,6.457645297E-1
2.827584625E0,-4.418500885E-2,6.757994741E-2,8.825048804E-1
2.837634625E0,-5.523990840E-2,8.548560739E-2,7.994759083E-1
2.847684625E0,-6.180751603E-3,1.002746820E-1,6.633540392E-1
2.857733625E0,2.289625350E-3,9.205419570E-3,5.012232065E-1
2.867783625E0,-3.050667048E-2,-2.378315665E-2,3.267781436E-1
2.877833625E0,3.529105708E-2,8.646188676E-2,2.302258015E-1
2.887882625E0,6.304971874E-2,1.654645503E-1,3.032363653E-1
2.897932625E0,1.483926475E-1,2.502736449E-1,5.137655139E-1
2.907982625E0,-4.180471599E-2,-3.788039088E-2,8.627632260E-1
2.918031625E0,1.601285301E-2,6.106139719E-2,9.250521660E-1
2.928081625E0,-2.353988402E-2,-5.984217394E-3,7.465063930E-1
2.938131625E0,-4.031277075E-2,-7.234425843E-2,5.550773740E-1
2.948180625E0,-1.115408633E-2,-4.234481230E-2,2.202452868E-1
2.958230625E0,-9.789038450E-4,1.020943001E-2,3.930421174E-2
2.968280625E0,8.562403731E-3,2.464935556E-2,1.262127459E-1
2.978329625E0,2.005235758E-3,-2.298101783E-2,2.844594121E-1
2.988379625E0,-1.280726679E-2,-2.185458317E-3,4.854559004E-1
2.998429625E0,-1.647485979E-2,-3.034444526E-2,5.424083471E-1
3.008478625E0,-1.437415835E-2,-8.194878697E-2,4.665748477E-1
3.018528625E0,-3.080867603E-2,1.183358114E-2,2.697933018E-1
3.028578625E0,8.687067777E-3,3.136813268E-2,4.600996077E-1
3.038627625E0,-5.275771953E-3,1.994087361E-2,5.671132207E-1
3.048677625E0,-5.589953437E-2,-7.565408945E-2,7.591663003E-1
3.058727625E0,-5.730522797E-2,-1.023685187E-1,7.765148878E-1
3.068776625E0,-1.998874731E-2,-4.248148203E-2,8.159725070E-1
3.078826625E0,-1.062238067E-1,-1.743932813E-1,7.184962630E-1
3.088876625E0,-6.508728862E-2,-1.320604682E-1,5.586714149E-1
3.098926625E0,-3.744485322E-3,-2.554443106E-2,3.557729423E-1
3.108975625E0,1.066934038E-2,2.202095650E-2,2.123774439E-1
3.119025625E0,3.946048021E-2,5.906397104E-2,-1.709696651E-2
3.129075625E0,2.703310363E-2,2.822802588E-2,-1.461007595E-1
3.139124625E0,5.322375894E-2,9.812903404E-2,-9.243872762E-2
3.149174625E0,3.567512333E-2,8.004616946E-2,-8.663783222E-2
3.159224625E0,-6.159294862E-3,-2.690600976E-2,1.880758405E-1
3.169273625E0,-5.718274973E-3,-5.637473892E-3,3.105024397E-1
3.179323625E0,1.726484299E-2,3.520790488E-3,3.007403016E-1
3.189373625E0,-1.480787154E-2,-4.448668286E-2,3.816138506E-1
3.199422625E0,-2.580554783E-2,-5.940865353E-2,4.053790569E-1
3.209472625E0,-1.862664707E-3,8.120723069E-4,4.535915852E-1
3.219522625E0,-2.399671590E-3,1.776577160E-2,5.441316366E-1
3.229571625E0,-3.111600503E-2,-7.585126907E-2,7.660000920E-1
3.239621625E0,-2.497231588E-2,-8.546615392E-2,6.013570428E-1
3.249671625E0,-5.504075438E-3,-1.879019290E-2,5.909236073E-1
3.259720625E0,-2.769345976E-2,-7.282970101E-2,5.677935481E-1
3.269770625E0,1.771956123E-2,-2.874505892E-2,3.889494836E-1
3.279820625E0,9.754346684E-3,-6.716104597E-2,3.730131984E-1
3.289869625E0,2.175002359E-2,-5.502662063E-2,4.536702335E-1
3.299919625E0,2.841683477E-2,-1.321000308E-1,6.627644300E-1
3.309969625E0,6.754639000E-2,-2.333784550E-1,7.449905872E-1
3.320018625E0,8.629314601E-3,-1.531514227E-1,8.384755850E-1
3.330068625E0,1.616872288E-2,-1.606527567E-1,8.784051538E-1
3.340118625E0,1.886996999E-2,1.379164495E-2,9.277110696E-1
3.350168625E0,-1.755728014E-2,3.939314187E-2,9.961692095E-1
3.360217625E0,-1.315667294E-2,-1.925822161E-2,1.066897035E0
3.370267625E0,-1.563048363E-2,-2.902989089E-2,1.063380241E0
3.380317625E0,-2.972518839E-2,-2.628612518E-2,1.002419710E0
3.390366625E0,-2.136579156E-2,-5.792367831E-2,9.255149364E-1
3.400416625E0,-2.337910235E-2,-4.706628621E-2,8.743550181E-1
3.410466625E0,-5.327130668E-3,-6.734572817E-3,8.298269510E-1
3.420515625E0,-1.578242518E-2,-2.534482256E-2,8.939135671E-1
3.430565625E0,5.855465680E-2,6.089339405E-2,1.018316150E0
3.440615625E0,-3.183212876E-2,-3.522926942E-2,1.066167355E0
3.450664625E0,-2.617584169E-2,-4.435325786E-2,9.690560102E-1
3.460714625E0,-2.202381939E-2,-6.532122195E-2,8.703445792E-1
3.470764625E0,-5.536722951E-3,-1.319034398E-1,8.543256521E-1
3.480813625E0,-1.906405576E-2,-5.171950161E-2,8.687347770E-1
3.490863625E0,-1.334984899E-1,-3.666758165E-2,1.201151371E0
3.500913625E0,-7.855082303E-2,-5.735077858E-1,1.458515048E0
3.510962625E0,8.103378117E-3,1.108935028E-1,1.632815242E0
3.521012625E0,7.150089368E-4,-5.487782136E-2,1.224264026E0
3.531062625E0,1.746451482E-3,-5.373585597E-2,6.403992772E-1
3.541112625E0,-2.523089759E-3,-4.580957443E-2,9.960230440E-2
3.551161625E0,-6.733281072E-3,-8.149811998E-3,-1.367774755E-1
3.561211625E0,-1.572170481E-2,1.019612793E-2,-1.779704541E-1
3.571261625E0,-1.829378679E-2,3.892683983E-2,-9.626652300E-2
3.581310625E0,-1.397962961E-2,6.643785536E-2,-3.319866955E-2
3.591360625E0,-2.028759196E-2,4.942398518E-2,-1.388041973E-1
3.601410625E0,9.909122437E-2,2.476403266E-1,-4.343778789E-1
3.611459625E0,-2.649705671E-2,7.342165709E-2,-7.519837618E-1
3.621509625E0,4.196885973E-2,4.432308301E-2,-1.054172516E0
3.631559625E0,-7.814183831E-2,1.283703148E-1,-1.201627731E0
3.641608625E0,-1.461800039E-1,3.334905505E-1,-1.239619613E0
3.651658625E0,-1.221495047E-1,3.605858386E-1,-1.035534143E0
3.661708625E0,-1.679261215E-2,1.092171073E-1,-8.426352143E-1
3.671757625E0,-8.384129032E-4,5.196500570E-2,-9.706618786E-1
3.681807625E0,1.037467830E-2,5.522716790E-2,-1.120188475E0
3.691857625E0,2.260710858E-2,4.645658284E-2,-1.459768653E0
3.701906625E0,2.346898243E-2,2.238832787E-2,-1.558118343E0
3.711956625E0,2.731751837E-2,2.810640074E-2,-1.542798996E0
3.722006625E0,2.544406243E-2,7.060608827E-3,-1.278135300E0
3.732055750E0,2.243096009E-2,-6.625109818E-3,-1.415409803E0
3.742105750E0,1.089623477E-2,-1.732161455E-2,-1.028571367E0
3.752155750E0,5.577636883E-3,-7.303068414E-3,-5.523743033E-1
3.762205750E0,2.833520062E-3,-2.663225681E-2,-6.804896593E-1
3.772254750E0,1.297989674E-2,5.282531958E-3,-7.862643003E-1
3.782304750E0,9.065578692E-3,-1.961459592E-2,-6.058213115E-1
3.792354750E0,1.368030440E-2,-1.234256662E-3,-8.094329834E-1
3.802403750E0,4.821836017E-3,-1.706991158E-2,-8.160086274E-1
3.812453750E0,-3.855807707E-3,-1.363922656E-2,-2.924705446E-1
3.822503750E0,2.489648759E-4,-1.830818132E-3,-7.318325639E-1
3.832552750E0,5.548389163E-3,1.503977552E-2,-6.476122141E-1
3.842602750E0,1.957423054E-3,2.670532838E-2,-4.289070666E-1
3.852652750E0,-4.687962122E-3,-7.779942825E-3,-7.258707881E-1
3.862701750E0,4.001194611E-4,-1.493256353E-2,-6.808201671E-1
3.872751750E0,-1.362142339E-2,8.654522710E-3,-2.263682336E-1
3.882801750E0,5.908634979E-3,8.137029596E-3,-9.278050065E-1
3.892850750E0,5.070006009E-3,5.533256568E-3,-7.456008196E-1
3.902900750E0,2.263961360E-4,-1.807188056E-2,-6.468395591E-1
3.912950750E0,-2.780067734E-4,2.676403336E-2,-9.220151901E-1
3.922999750E0,-1.057275105E-3,2.445530379E-3,-8.190193772E-1
3.933049750E0,8.253934793E-3,2.207355946E-2,-7.627710104E-1
3.943099750E0,6.215959322E-3,-1.634752844E-3,-7.674415708E-1
3.953149750E0,5.381000228E-4,-6.830580067E-3,-6.698154211E-1
3.963198750E0,8.054187521E-3,-2.454376314E-3,-5.305362344E-1
3.973248750E0,3.230669536E-3,-2.758509014E-3,-5.086743236E-1
3.983298750E0,-2.145380713E-4,1.354621723E-2,-5.083789229E-1
3.993347750E0,1.638489775E-3,1.773430407E-2,-5.515367389E-1
4.003397750E0,7.281146478E-3,1.912045293E-2,-3.904685974E-1
4.013447750E0,5.240366329E-3,3.225170076E-2,-2.118860632E-1
4.023496750E0,-9.106419981E-3,5.674236454E-3,-8.569924533E-2
4.033546750E0,-7.200129330E-3,-1.421957649E-2,1.140524819E-1
4.043596750E0,-1.327490620E-2,-1.822469383E-2,6.133125722E-2
4.053645750E0,1.303237863E-3,1.898312941E-2,1.103842929E-1
4.063695750E0,-8.820475079E-3,1.114316471E-2,-3.436031193E-2
4.073745750E0,-5.233972333E-4,9.329551831E-3,-1.749373623E-3
4.083794750E0,-4.339404404E-3,2.292749286E-2,1.403689533E-1
4.093844750E0,-9.265635163E-4,1.072062925E-2,1.080392450E-1
4.103894750E0,-4.609257448E-3,4.965662025E-3,3.580316305E-1
4.113943750E0,-1.962874550E-3,2.273054421E-2,2.304334342E-1
4.123993750E0,4.380556755E-3,4.130965471E-2,1.124086082E-1
4.134043750E0,-5.598041229E-3,2.290295251E-2,-5.565283075E-2
4.144092750E0,7.846307941E-3,4.966325313E-2,-2.754063606E-1
4.154142750E0,8.699584752E-3,2.995346114E-2,-2.665843666E-1
4.164192750E0,-4.767938517E-4,8.521967568E-3,-4.044948220E-1
4.174241750E0,1.157592051E-4,-4.453219473E-3,-3.843325675E-1
4.184291750E0,8.221434429E-3,1.170754433E-3,-4.456748664E-1
4.194341750E0,7.653827779E-4,2.090397850E-2,-7.109105587E-1
4.204391750E0,8.745770901E-3,2.474883012E-2,-7.499856949E-1
4.214440750E0,1.739465259E-2,3.600068763E-2,-7.063626051E-1
4.224490750E0,4.512448795E-3,2.161500789E-2,-4.719850421E-1
4.234540750E0,8.840885013E-3,2.591015399E-2,-4.633225799E-1
4.244589750E0,5.580832250E-3,2.728686668E-2,-5.415000916E-1
4.254639750E0,1.268268470E-2,5.460184813E-2,-6.376660466E-1
4.264689750E0,1.848422922E-2,7.289747894E-2,-7.808123231E-1
4.274738750E0,6.137390435E-2,1.942310929E-1,-6.731880903E-1
4.284788750E0,1.384249032E-1,3.556474447E-1,-5.961558819E-1
4.294838750E0,5.509671941E-2,1.580049247E-1,-5.256228447E-1
4.304887750E0,-3.553465474E-3,2.923594601E-2,-5.135918856E-1
4.314937750E0,-3.431989998E-2,-9.413180873E-3,-4.049119949E-1
4.324987750E0,-2.237029746E-2,2.156337723E-2,-2.848926485E-1
4.335036750E0,-1.624822244E-2,1.870474033E-2,-2.500214875E-1
4.345086750E0,-3.107959591E-2,-4.341569915E-2,-1.691062003E-1
4.355136750E0,-6.724798679E-2,-1.233480871E-1,-4.842770472E-2
4.365185750E0,-6.479253620E-2,-1.401605457E-1,1.701297238E-2
4.375235750E0,1.582757104E-3,1.388627291E-2,7.284188271E-2
4.385285750E0,2.435440570E-2,5.353967845E-2,9.581370652E-2
4.395334750E0,-1.003148500E-3,6.868313532E-3,9.048311412E-2
4.405384750E0,-2.961200476E-2,-4.248868302E-2,1.384918243E-1
4.415434750E0,5.905022100E-2,1.190743744E-1,1.954674870E-1
4.425483750E0,5.679798871E-2,1.078808084E-1,2.397580147E-1
4.435533750E0,-6.055536680E-3,-4.239606205E-3,2.488138229E-1
4.445583750E0,3.735984676E-3,4.503648262E-3,1.216162182E-2
4.455633750E0,3.367657214E-2,5.092467368E-2,-9.140737355E-3
4.465682750E0,1.040814221E-1,1.646993011E-1,-9.153941646E-3
4.475732750E0,1.808339953E-1,2.914005220E-1,-1.427793801E-1
4.485782750E0,-2.175396681E-2,-6.508988142E-2,-1.943112016E-1
4.495831750E0,-9.063156694E-2,-1.642247140E-1,-3.583607450E-2
4.505881750E0,-4.208449721E-1,-7.713800073E-1,-1.671410203E-1
4.515931750E0,2.707767114E-2,3.042404726E-2,-5.889623165E-1
4.525980750E0,1.922611147E-2,2.133408748E-2,-2.478397638E-1
4.536030750E0,1.007229462E-2,1.028223429E-2,-7.980293594E-3
4.546080750E0,9.993804619E-3,1.617279463E-2,5.274524912E-2
4.556129750E0,1.839368045E-2,2.402379364E-2,1.454299092E-1
4.566179750E0,1.780980080E-2,2.554808930E-2,2.007037252E-1
4.576229750E0,4.072656855E-2,6.404381245E-2,2.685219347E-1
4.586278750E0,3.500070050E-2,6.390009075E-2,4.157857895E-1
4.596328750E0,7.547515631E-2,1.231029555E-1,4.316473007E-1
4.606378750E0,1.747635007E-1,3.139609396E-1,5.517207980E-1
4.616427750E0,-1.408391073E-2,-2.037870139E-2,9.070482850E-1
4.626477750E0,1.084087975E-2,1.204714924E-2,1.024664879E0
4.636527750E0,-6.151370704E-2,-1.728316993E-1,8.499695063E-1
4.646576750E0,-2.998906672E-1,-7.316450477E-1,7.515529990E-1
4.656626750E0,-4.678890109E-2,-1.670144349E-1,2.070396543E-1
4.666676750E0,-6.733014714E-3,-6.199759990E-2,-6.210537627E-2
4.676725750E0,2.269268967E-3,-2.222754806E-2,1.498409659E-1
4.686775750E0,-8.663424291E-3,-2.036480047E-2,5.186342597E-1
4.696825750E0,-1.050233655E-2,-3.651207685E-2,8.734652996E-1
4.706874750E0,-1.373130828E-2,1.719344221E-2,1.309958339E0
4.716924750E0,-3.789994400E-3,8.978389204E-3,1.484385014E0
4.726975042E0,1.234062947E-4,-6.928769406E-3,9.950594902E-1
4.737025042E0,-9.807787836E-3,-2.969714347E-3,6.086950302E-1
4.747074042E0,5.603507161E-3,1.689317403E-3,-2.093471773E-2
4.757124042E0,3.688694909E-3,-2.015073411E-2,9.988357872E-2
4.767174042E0,-5.979339126E-3,-2.064825781E-2,2.525612116E-1
4.777223042E0,-5.937261041E-3,-2.747740038E-2,6.802126765E-1
4.787273042E0,-1.005555410E-2,-1.655841246E-2,7.842785716E-1
4.797323042E0,-1.011813805E-2,-3.296108544E-2,6.633731723E-1
4.807372042E0,-6.781750359E-3,-2.444995567E-2,4.979805648E-1
4.817422042E0,-3.897014540E-3,-1.241672784E-2,2.333036363E-1
4.827472042E0,3.186049871E-3,-3.581943922E-3,1.222838536E-1
4.837521042E0,-4.550237209E-4,-2.657027915E-3,3.646181822E-1
4.847571042E0,5.171750672E-4,-4.636631347E-4,7.037915587E-1
4.857621042E0,-7.183355279E-3,-5.203024950E-3,1.098039746E0
4.867670042E0,-8.569189347E-3,-2.249570005E-2,1.096867204E0
4.877720042E0,-1.066136919E-2,1.515846699E-2,8.937731385E-1
4.887770042E0,-2.331032651E-3,-4.803925753E-2,9.302240610E-1
4.897819042E0,-5.706322845E-3,-1.697294787E-2,6.665977240E-1
4.907869042E0,-3.418829292E-4,-8.246611804E-3,5.094911456E-1
4.917919042E0,-9.780125692E-3,-1.523714326E-2,5.421563983E-1
4.927968042E0,-1.079482958E-2,-2.912476286E-2,5.888506174E-1
4.938018042E0,-1.867539063E-2,-1.437484473E-2,9.358554482E-1
4.948068042E0,-1.248304732E-2,1.366509125E-2,1.020268679E0
4.958117042E0,-1.414432749E-2,-1.306745317E-2,1.043740153E0
4.968167042E0,-1.669833623E-2,-4.764205776E-3,8.109903336E-1
4.978217042E0,1.425806433E-3,1.192182954E-2,3.908841312E-1
4.988266042E0,3.030636348E-3,-2.363487519E-2,4.421747327E-1
4.998316042E0,-6.216228940E-4,-2.829966694E-2,5.003629923E-1
5.008366042E0,-5.360079929E-3,1.963763870E-2,4.959941208E-1
5.018416042E0,-3.570968518E-3,6.603861693E-3,6.485868692E-1
5.028465042E0,-9.579624981E-3,-4.638785496E-3,7.158520818E-1
5.038515042E0,5.041129421E-3,1.689151861E-3,6.815004945E-1
5.048565042E0,-1.172917988E-2,3.694036510E-3,5.439533591E-1
5.058614042E0,4.412280396E-5,3.246050328E-4,4.991664886E-1
5.068664042E0,-1.256567426E-2,1.510782167E-4,3.386299312E-1
5.078714042E0,-7.605536375E-3,2.138595097E-3,4.444977641E-1
5.088763042E0,4.033421632E-3,3.921410535E-3,4.933241606E-1
5.098813042E0,6.061684806E-3,1.284113526E-2,3.982807398E-1
5.108863042E0,-1.775928028E-2,-1.968043670E-2,8.292114139E-1
5.118912042E0,-1.617869362E-2,6.201228127E-3,9.398516417E-1
5.128962042E0,-2.726632403E-3,-2.917614393E-2,8.197962642E-1
5.139012042E0,1.567634195E-2,-6.690887362E-2,8.641948700E-1
5.149061042E0,6.025849655E-2,-1.802998185E-1,9.409627318E-1
5.159111042E0,2.897301316E-2,-1.093966067E-1,7.549403906E-1
5.169161042E0,-6.531586498E-2,1.106603071E-1,4.576350749E-1
5.179210042E0,4.536455963E-3,-3.329047933E-2,5.888485312E-1
5.189260042E0,3.888027370E-2,-9.748247266E-2,6.698675156E-1
5.199310042E0,-1.731508598E-2,8.010934107E-3,5.933048129E-1
5.209359042E0,-4.233182967E-2,5.944430456E-2,4.666461945E-1
5.219409042E0,-3.152498603E-2,5.751990527E-2,1.367148757E-1
5.229459042E0,6.897160318E-3,-2.766817622E-2,2.458817214E-1
5.239508042E0,4.341590684E-3,-2.395732701E-2,2.426960468E-1
5.249558042E0,-1.942711882E-3,-4.560642410E-3,2.485678196E-1
5.259608042E0,1.261439174E-2,-4.409127310E-2,4.417386055E-1
5.269658042E0,1.435476914E-2,-6.429439783E-2,6.033902764E-1
5.279707042E0,2.271309868E-2,-1.101972163E-2,6.275280714E-1
5.289757042E0,-7.216341794E-3,5.693521816E-3,4.010877609E-1
5.299807042E0,6.550472975E-2,-1.805373430E-1,2.317205817E-1
5.309856042E0,-1.832847297E-1,-5.188362598E-1,2.542009652E-1
5.319906042E0,4.292923585E-2,2.689526975E-2,2.061458491E-2
5.329956042E0,5.948234815E-3,-4.417954013E-2,-7.958089560E-2
5.340005042E0,3.927161451E-3,-1.305357739E-2,-2.617453635E-1
5.350055042E0,8.675197139E-3,3.609975427E-2,-3.163426518E-1
5.360105042E0,-2.228583209E-3,1.750236936E-2,-4.755855799E-1
5.370154042E0,-5.536190234E-3,2.228372730E-2,-2.302658856E-1
5.380204042E0,-6.623389199E-4,3.697824851E-2,-4.008609429E-2
5.390254042E0,2.105346322E-1,2.458834276E-2,1.245379597E-1
5.400303042E0,8.843857795E-3,5.470656231E-2,-2.121982165E-3
5.410353042E0,-4.168007523E-3,8.012247086E-2,-1.032533720E-1
5.420403042E0,-7.907527685E-2,9.169922769E-2,-4.041716754E-1
5.430452042E0,5.374098662E-3,-3.332605958E-2,-5.034516454E-1
5.440502042E0,-3.051077714E-3,2.092892118E-2,-5.059337020E-1
5.450552042E0,-1.207345165E-2,3.700993955E-2,-4.066867232E-1
5.460602042E0,-1.361152623E-3,9.237167425E-3,-3.885197043E-1
5.470651042E0,4.926540889E-3,-3.981013317E-3,-3.906841278E-1
5.480701042E0,-2.815737575E-2,2.783284336E-2,-5.166055560E-1
5.490751042E0,4.283494782E-3,-6.012083031E-4,-6.575470567E-1
5.500800042E0,-2.558698412E-3,3.651873022E-2,-1.035058379E0
5.510850042E0,-5.412462633E-3,5.168637261E-2,-1.062785387E0
5.520900042E0,-4.532554187E-3,1.900139451E-2,-9.220677614E-1
5.530949042E0,8.577615023E-3,-1.105537638E-2,-7.879318595E-1
5.540999042E0,-3.944568336E-3,9.808093309E-3,-8.174708486E-1
5.551049042E0,-5.837616976E-3,7.672742009E-3,-7.973075509E-1
5.561098042E0,3.169031814E-2,-6.991898268E-2,-7.731875777E-1
5.571148042E0,-3.576956317E-2,7.807760686E-2,-8.043017983E-1
5.581198042E0,-8.177753538E-2,1.801525801E-1,-8.213910460E-1
5.591247042E0,-5.842378736E-2,1.503082216E-1,-9.416082501E-1
5.601297042E0,-3.688281029E-2,5.612232536E-2,-8.732696772E-1
5.611347042E0,8.529411629E-3,2.540702745E-2,-1.071432710E0
5.621396042E0,-1.479215547E-2,6.673449278E-2,-1.019359469E0
5.631446042E0,-5.018788390E-3,8.843295276E-2,-9.788408875E-1
5.641496042E0,1.525930129E-3,3.010730259E-3,-1.001208782E0
5.651545042E0,-8.756441064E-3,1.587074995E-2,-1.081073999E0
5.661595042E0,5.792696029E-4,4.957225546E-2,-1.311204910E0
5.671645042E0,2.632572129E-2,8.033738285E-2,-1.434887171E0
5.681695042E0,6.889208406E-2,1.582947820E-1,-1.315686464E0
5.691744042E0,1.360406876E-1,3.025125563E-1,-1.224586248E0
5.701794042E0,1.293505579E-1,2.230036259E-1,-9.481624365E-1
5.711844042E0,7.857175916E-2,1.319297999E-1,-8.023957014E-1
5.721893042E0,4.985010251E-2,8.478731662E-2,-6.707391143E-1
5.731943250E0,2.588485926E-2,1.029706188E-2,-4.762420952E-1
5.741993250E0,4.351631925E-2,6.093413755E-2,-4.602330327E-1
5.752042250E0,1.099146158E-2,1.053312421E-1,-5.842601657E-1
5.762092250E0,-2.476227470E-2,-9.708799422E-3,-2.460395098E-1
5.772142250E0,-4.160885885E-2,-4.364231229E-2,-1.834526211E-1
5.782191250E0,-8.880886436E-2,-1.049988791E-1,1.057634801E-1
5.792241250E0,-1.124795005E-1,-1.601353437E-1,1.780033410E-1
5.802291250E0,-8.649077266E-2,-1.092173010E-1,3.913626447E-2
5.812340250E0,-7.645788044E-2,-1.430557966E-1,-9.087239951E-2
5.822390250E0,-6.585051119E-2,-1.415409893E-1,-3.944983482E-1
5.832440250E0,-5.054808781E-2,-1.009846553E-1,-5.767449141E-1
5.842489250E0,-1.223079301E-2,-1.218420919E-2,-6.827363372E-1
5.852539250E0,3.141188994E-3,4.933801666E-2,-5.366122127E-1
5.862589250E0,-2.527615754E-3,-3.691165149E-2,-6.804514527E-1
5.872638250E0,-3.870515851E-3,-6.959483027E-3,-3.778100908E-1
5.882688250E0,5.374914501E-3,1.564763486E-3,-5.275010467E-1
5.892738250E0,1.413543802E-2,3.313090652E-2,-8.505409956E-1
5.902787250E0,2.632579207E-2,1.859137975E-2,-9.781796932E-1
5.912837250E0,4.353767727E-3,8.119620383E-3,-9.134581089E-1
5.922887250E0,1.018662378E-2,-1.507784333E-2,-6.414497495E-1
5.932936250E0,8.564867079E-3,1.975428313E-3,-3.728401661E-1
5.942986250E0,-4.674505442E-3,2.547329664E-2,-3.259760141E-1
5.953036250E0,4.984606057E-4,9.283004329E-5,-3.670947254E-1
5.963086250E0,1.709133387E-3,-9.093172848E-4,-3.293997943E-1
5.973135250E0,4.625331145E-3,-1.347523648E-3,-2.704742253E-1
5.983185250E0,5.566492211E-3,3.214678541E-2,-3.060183525E-1
5.993235250E0,5.113561172E-3,3.059514239E-2,-4.178608954E-1
6.003284250E0,5.170287099E-3,2.185438201E-2,-5.340111852E-1
6.013334250E0,5.597953685E-3,3.749490157E-2,-5.770856142E-1
6.023384250E0,3.119882196E-3,3.156298026E-2,-6.024492979E-1
6.033433250E0,3.423672169E-3,2.799393609E-2,-4.754377306E-1
6.043483250E0,-1.048308332E-3,1.724861376E-2,-4.391180575E-1
6.053533250E0,6.888736971E-4,2.442195080E-2,-3.938971758E-1
6.063582250E0,-6.413510535E-3,7.674130611E-3,-1.021366939E-1
6.073632250E0,-9.410368279E-3,2.152378671E-2,5.637714639E-5
6.083682250E0,-1.343626902E-2,2.381836623E-2,1.340920106E-2
6.093731250E0,-1.185179874E-2,2.102552354E-2,-2.103235200E-2
6.103781250E0,-7.536945399E-3,1.260301098E-2,-1.793900430E-1
6.113831250E0,-6.707449909E-3,1.035131980E-2,-1.912573725E-1
6.123880250E0,-1.065079309E-2,1.278092153E-2,-3.576125950E-2
6.133930250E0,-1.316938177E-2,2.301111631E-2,2.598128021E-1
6.143980250E0,-1.082633249E-2,1.958709210E-2,3.132070303E-1
6.154029250E0,-9.786818177E-3,1.170396898E-2,2.919575870E-1
6.164079250E0,-8.976152167E-3,8.267692290E-3,2.232296467E-1
6.174129250E0,-7.212392520E-3,3.191627329E-3,1.760972887E-1
6.184179250E0,-7.104534656E-3,-2.493422478E-3,2.618921101E-1
6.194228250E0,-5.388346501E-3,5.939711817E-3,1.383545697E-1
6.204278250E0,-5.035763606E-4,7.540804334E-3,-1.262536272E-2
6.214328250E0,-3.064472228E-3,4.834233783E-3,-1.471570730E-1
6.224377250E0,-9.185168892E-5,-4.857009742E-3,-2.723775804E-1
6.234427250E0,7.888315246E-3,-1.975275576E-2,-3.673287034E-1
6.244477250E0,1.142206416E-2,-1.677214727E-2,-4.225437641E-1
6.254526250E0,3.935547080E-3,-1.285196375E-2,-1.788916439E-1
6.264576250E0,-2.918896731E-3,-1.230175328E-2,-1.309735328E-2
6.274626250E0,-2.554890933E-3,-1.441541873E-2,-1.624162197E-1
6.284675250E0,4.733382259E-3,-4.704201128E-3,-6.943174005E-1
6.294725250E0,2.323560882E-3,-4.459693562E-3,-5.776352286E-1
6.304775250E0,3.939034883E-3,-1.679172739E-2,-4.677137733E-1
6.314824250E0,6.537027191E-3,-2.557016537E-2,-4.037658274E-1
6.324874250E0,9.306715801E-3,-2.509905398E-2,-1.467177719E-1
6.334924250E0,-1.328646950E-2,3.390925005E-2,-7.613907009E-2
6.344973250E0,-9.521825239E-3,3.095686808E-2,2.188069746E-2
6.355023250E0,8.218508214E-3,-1.293646544E-2,5.316308141E-1
6.365073250E0,9.432910010E-3,-9.625090286E-3,4.714612067E-1
6.375122250E0,7.247559261E-3,-4.599370062E-3,4.736906290E-1
6.385172250E0,8.675279096E-3,3.258019919E-3,4.744195342E-1
6.395222250E0,1.079184655E-2,-1.050662622E-2,4.212180078E-1
6.405271250E0,8.846407756E-3,-2.789627016E-2,3.382056653E-1
6.415321250E0,4.672846291E-3,-8.816108108E-3,4.127927125E-1
6.425371250E0,2.557231579E-3,-1.458858605E-3,6.707315445E-1
6.435421250E0,-1.659842208E-3,-1.413691975E-2,1.009443641E0
6.445470250E0,-4.136848263E-3,-2.048163489E-2,1.154436707E0
6.455520250E0,-6.136018783E-6,-2.808037587E-2,1.285857797E0
6.465570250E0,-7.422773167E-3,-1.663544215E-2,1.153579116E0
6.475619250E0,-7.761676796E-3,-8.065978065E-3,9.343051314E-1
6.485669250E0,-5.405046046E-3,-2.683167718E-2,7.159916759E-1
6.495719250E0,-1.022970211E-2,-5.216691643E-3,8.750393391E-1
6.505768250E0,-1.225982979E-2,-1.547944825E-2,9.126338959E-1
6.515818250E0,-1.024549361E-2,-2.366907336E-2,8.313756585E-1
6.525868250E0,-1.428550854E-2,-1.521886326E-2,6.522860527E-1
6.535917250E0,-8.234654553E-3,-1.896842755E-2,4.837232828E-1
6.545967250E0,9.231576696E-4,-2.139510028E-2,2.725623250E-1
6.556017250E0,-1.255183201E-2,-2.903591096E-2,2.881876230E-1
6.566066250E0,-2.016886137E-4,-3.278004751E-2,6.476014256E-1
6.576116250E0,-1.133015938E-2,-3.026698530E-2,8.458635807E-1
6.586166250E0,-9.989790618E-3,-3.807058185E-2,9.345476627E-1
6.596215250E0,-1.099357009E-2,-2.575022541E-2,9.938613772E-1
6.606265250E0,-9.691550396E-3,-3.841009364E-2,7.216130495E-1
6.616315250E0,-3.571576206E-3,-1.438240707E-2,5.795883536E-1
6.626364250E0,-1.618413720E-3,-7.036078256E-3,3.155223429E-1
6.636414250E0,8.384609595E-3,-5.997473374E-3,2.213071436E-1
6.646464250E0,4.858052824E-3,-1.871992648E-2,4.496614933E-1
6.656513250E0,-1.195600629E-2,1.898486912E-2,7.439735532E-1
6.666563250E0,-7.539153565E-3,-4.638508335E-2,1.043300867E0
6.676613250E0,-1.216934621E-2,-3.158776462E-2,1.077573419E0
6.686662250E0,-8.338388056E-3,-3.342011943E-3,8.511871696E-1
6.696712250E0,-7.897231728E-3,-2.418875508E-2,5.524714589E-1
6.706762250E0,-1.342701912E-2,-2.327768877E-2,1.655759513E-1
6.716811250E0,3.954650369E-3,3.112665191E-2,4.160121679E-1
6.726861250E0,-5.243375432E-3,-9.379763156E-3,6.446272135E-1
6.736911250E0,-5.641906522E-3,-8.924835362E-3,9.316726327E-1
6.746960250E0,-9.168731049E-3,2.061768901E-3,1.031683326E0
6.757010250E0,-9.627565742E-3,-2.078799531E-3,9.343311191E-1
6.767060250E0,-3.236246062E-3,-1.528541557E-2,7.941151261E-1
6.777109250E0,3.433113452E-3,-3.678580374E-2,7.335996628E-1
6.787159250E0,-6.529772189E-3,2.567677572E-2,6.066204309E-1
6.797209250E0,-4.667842761E-3,9.785259143E-3,8.688846231E-1
6.807259250E0,-6.548034493E-3,-8.568180725E-3,9.560331106E-1
6.817308250E0,-3.242220264E-3,4.160242155E-3,9.843870997E-1
6.827358250E0,-1.370897610E-2,-6.780821830E-3,1.081413507E0
6.837408250E0,-8.325655013E-3,-4.685488995E-3,1.096799850E0
6.847457250E0,-9.237787686E-3,-6.446903106E-3,7.360409498E-1
6.857507250E0,-5.751143210E-3,-2.474445850E-2,8.456488848E-1
6.867557250E0,-5.347674247E-3,-9.021954611E-3,3.807317913E-1
6.877606250E0,-5.239096470E-3,7.558098994E-3,1.612776816E-1
6.887656250E0,-2.908298047E-3,2.355357632E-2,7.141809911E-2
6.897706250E0,-8.874690160E-3,1.303091086E-2,1.518764943E-1
6.907755250E0,-7.331122644E-3,6.046238355E-3,1.781557649E-1
6.917805250E0,3.478457220E-3,4.280667752E-2,5.907120928E-2
6.927855250E0,1.126633957E-2,2.821788192E-2,-2.329081893E-1
6.937904250E0,6.511581596E-3,3.611870483E-2,-1.222476214E-1
6.947954250E0,4.290772136E-3,8.011704311E-3,-4.507301748E-1
6.958004250E0,2.759713214E-3,9.320005774E-3,-1.380837150E-2
6.968053250E0,-6.285713054E-3,-2.774374001E-2,2.723120712E-2
6.978103250E0,-3.121332265E-4,-1.290808246E-2,1.329272389E-1
6.988153250E0,-2.156372182E-3,-1.320662163E-2,2.205399126E-1
6.998202250E0,-1.177555323E-2,-7.576419506E-3,3.145311475E-1
7.008252250E0,-8.728630841E-3,-1.431341842E-2,2.726920843E-1
7.018302250E0,-1.370011084E-2,-2.340200171E-2,2.690206170E-1
7.028351250E0,-7.373504806E-3,-2.642069571E-2,3.145651817E-1
7.038401250E0,-4.721752368E-3,-1.172785368E-2,3.110713661E-1
7.048451250E0,-5.541206803E-3,-3.904496133E-2,3.349556625E-1
7.058500250E0,-1.812889241E-4,-2.076761797E-2,4.100582004E-1
7.068550250E0,4.987108056E-3,-3.256222606E-2,4.448468089E-1
7.078600250E0,1.260492671E-2,-4.656795785E-2,3.541628122E-1
7.088650250E0,3.622343764E-2,-9.548091143E-2,3.872813582E-1
7.098699250E0,2.799905837E-2,-6.282024086E-2,2.760473490E-1
7.108749250E0,2.505786344E-2,-5.760363862E-2,2.003901452E-1
7.118799250E0,1.833279151E-3,-3.032983653E-2,5.066223443E-2
7.128848250E0,2.594660595E-2,-5.910369754E-2,4.078416526E-1
7.138898250E0,5.505597219E-2,-1.038413271E-1,6.608691812E-1
7.148948250E0,1.315566059E-2,-2.082127333E-2,6.073311567E-1
7.158997250E0,8.919950575E-3,-4.114970099E-3,5.542302132E-1
7.169047250E0,-8.526683785E-3,3.124967776E-2,4.023570418E-1
7.179097250E0,-5.077822134E-3,1.734043844E-2,4.441392422E-1
7.189146250E0,-2.003733069E-2,6.010787562E-2,1.637467444E-1
7.199196250E0,-4.265197739E-2,1.083238199E-1,1.192711145E-1
7.209246250E0,-3.302012011E-2,8.013745397E-2,-6.907135993E-2
7.219295250E0,-2.416431904E-2,6.036512181E-2,-8.709350973E-2
7.229345250E0,-1.161390543E-2,3.826993704E-2,-3.044436872E-1
7.239395250E0,-1.283522509E-2,4.744988680E-2,-5.347434878E-1
7.249444250E0,-1.575113274E-3,2.204865590E-2,-8.174638748E-1
7.259494250E0,5.868453532E-3,6.596848369E-2,-1.111866832E0
7.269544250E0,-9.190390818E-3,5.558481812E-2,-1.424956322E0
7.279593250E0,1.790161431E-2,1.176083367E-2,-1.787935615E0
7.289643250E0,2.337036654E-3,-8.567074314E-3,-1.615453601E0
7.299693250E0,2.860154025E-3,-6.777401548E-3,-1.793427348E0
7.309742250E0,-1.578269992E-3,2.541462332E-2,-1.882195354E0
7.319792250E0,3.054032102E-3,4.039730132E-2,-1.701336861E0
7.329842250E0,-5.341050215E-3,2.059909515E-2,-1.775463820E0
7.339892250E0,1.946759410E-3,2.089781873E-2,-1.500905871E0
7.349941250E0,1.291232556E-2,1.419490762E-2,-1.372428656E0
7.359991250E0,1.493393071E-2,-8.856881410E-3,-1.085558176E0
7.370041250E0,-6.698660087E-3,1.452727057E-2,-1.094122887E0
7.380090250E0,1.298526675E-2,7.997086272E-3,-1.287607431E0
7.390140250E0,1.443562284E-2,1.821883209E-2,-1.296128988E0
7.400190250E0,1.453948207E-2,1.524183899E-2,-1.398291349E0
7.410239250E0,6.104759499E-2,7.764156163E-2,-1.139631748E0
7.420289250E0,1.005568653E-1,1.746979952E-1,-1.292095065E0
7.430339250E0,8.580508083E-2,9.956010431E-2,-1.363085866E0
7.440388250E0,4.922422767E-2,5.136959255E-2,-1.136732697E0
7.450438250E0,1.319139451E-2,1.598949917E-2,-1.041585445E0
7.460488250E0,1.291123033E-2,1.280142926E-2,-8.889711499E-1
7.470537250E0,-8.916673250E-4,-1.706565544E-2,-7.204346061E-1
7.480587250E0,1.760329120E-2,2.178175002E-2,-5.876533389E-1
7.490637250E0,2.070134692E-2,1.388060628E-3,-6.282942295E-1
7.500686250E0,2.144095674E-2,4.027476907E-2,-5.097110271E-1
7.510736250E0,3.694561124E-2,3.341792524E-2,-4.962865412E-1
7.520786250E0,3.870378435E-2,7.168059796E-2,-5.592349768E-1
7.530835250E0,-1.909053884E-2,5.045113619E-3,-5.173141956E-1
7.540885250E0,-2.735321596E-2,3.746050177E-3,-6.377264857E-1
7.550935250E0,-3.345052153E-2,-4.180092737E-2,-5.160517097E-1
7.560984250E0,-2.014653757E-2,-5.224210769E-2,-4.264552295E-1
7.571034250E0,-2.074361779E-2,-5.602566153E-2,-2.054647803E-1
7.581084250E0,1.383796986E-2,-7.426147815E-3,-1.115108877E-1
7.591133250E0,1.034044009E-2,-1.178840548E-2,-2.186490446E-1
7.601183250E0,-5.784169305E-3,-8.480935544E-2,-3.988130391E-1
7.611233250E0,2.132974006E-2,5.227499828E-2,-5.510190725E-1
7.621282250E0,4.505090043E-2,5.496751145E-2,-5.486850142E-1
7.631332250E0,2.107978612E-2,1.170259621E-2,-4.962758422E-1
7.641382250E0,3.394117951E-2,-7.690381724E-3,-3.639419377E-1
7.651431250E0,2.634105086E-2,1.170089282E-2,-2.831866145E-1
7.661481250E0,3.070889786E-2,2.567218617E-4,-2.345852703E-1
7.671531250E0,4.267874360E-2,4.070901312E-3,-3.652737737E-1
7.681581250E0,4.860519245E-2,5.515453964E-2,-4.143878222E-1
7.691630250E0,2.996546030E-2,-2.428649366E-2,-5.394474864E-1
7.701680250E0,7.440936286E-3,1.072483286E-1,-5.019289255E-1
7.711730250E0,-1.359057985E-2,4.342567548E-2,-4.588965178E-1
7.721779250E0,-9.288699366E-3,3.225785494E-2,-3.353092074E-1
7.731829500E0,-5.232403055E-5,1.333635952E-2,-7.160163671E-2
7.741879500E0,2.694737166E-2,3.184513375E-2,6.065660715E-2
7.751928500E0,-1.367089339E-2,3.272078000E-3,9.280361980E-2
7.761978500E0,-1.571496576E-2,5.839867052E-3,1.660347581E-1
7.772028500E0,-3.299142420E-2,3.196201473E-2,1.136676818E-1
7.782077500E0,-5.627807602E-2,4.130749777E-2,1.710053384E-1
7.792127500E0,-5.264579132E-2,5.422942340E-2,1.393283606E-1
7.802177500E0,-3.966144100E-2,3.006392904E-2,2.167114019E-1
7.812226500E0,-3.283762187E-2,2.398712747E-2,2.933316231E-1
7.822276500E0,-2.544400096E-2,1.606066339E-2,2.781493664E-1
7.832326500E0,-1.496153325E-2,1.830860972E-3,1.875414401E-1
7.842375500E0,1.648087054E-4,-2.383116167E-3,1.594429314E-1
7.852425500E0,1.740068197E-3,6.553653628E-3,3.485412896E-2
7.862475500E0,2.129124943E-3,3.934740089E-3,-7.686620951E-2
7.872524500E0,5.825859029E-3,-1.677871682E-3,-6.786605716E-2
7.882574500E0,1.018452458E-2,-5.661060568E-3,-2.683844790E-2
7.892624500E0,8.960535750E-3,-1.267502643E-2,4.038985819E-2
7.902673500E0,9.526880458E-3,-1.998938434E-2,9.679938108E-2
7.912723500E0,1.134741679E-2,-9.421428666E-3,1.396813393E-1
7.922773500E0,5.174395628E-3,4.795069341E-3,1.188490018E-1
7.932822500E0,4.289161414E-3,5.501606036E-3,1.740544587E-1
7.942872500E0,3.830851056E-4,9.176343679E-3,3.274287879E-1
7.952922500E0,1.071561687E-2,2.564453334E-2,4.096900821E-1
7.962971500E0,2.660524473E-2,2.885636687E-2,6.294651031E-1
7.973021500E0,3.021942079E-2,6.009018421E-2,7.111823559E-1
7.983071500E0,3.700845689E-2,6.451756507E-2,7.243613005E-1
7.993120500E0,2.332832851E-2,7.494996488E-2,7.767446041E-1
8.003170500E0,4.394895583E-2,6.685763597E-2,7.036996484E-1
8.013220500E0,-1.086768694E-2,4.560614750E-2,6.923021078E-1
8.023270500E0,-5.742307752E-3,2.268395573E-2,6.608315706E-1
8.033319500E0,-1.455151197E-2,-3.086555377E-2,8.232961297E-1
8.043369500E0,-2.601167746E-2,-2.715697698E-2,9.824652672E-1
8.053419500E0,-5.426275730E-2,-4.054735228E-2,1.201098800E0
8.063468500E0,-2.702259123E-1,-5.754017830E-1,1.235284925E0
8.073518500E0,-7.660929859E-2,-1.390856802E-1,1.073627353E0
8.083568500E0,-2.503843978E-2,-1.319156960E-2,9.558371902E-1
8.093617500E0,-1.087308675E-2,-3.810384125E-2,8.124099970E-1
8.103667500E0,-4.302304238E-3,-5.040334538E-2,6.768000126E-1
8.113717500E0,-6.080230698E-3,-1.563684270E-2,2.534205616E-1
8.123766500E0,8.522829041E-3,-2.945756540E-3,-1.304916572E-2
8.133816500E0,-1.414995641E-4,-4.797901213E-2,2.263381183E-1
8.143866500E0,5.115440581E-3,-2.152498066E-2,3.961821198E-1
8.153915500E0,2.867466304E-3,-1.704500988E-2,4.648011327E-1
8.163965500E0,-1.055491623E-3,-2.865580097E-2,3.686629236E-1
8.174015500E0,-2.494663931E-3,-3.540585190E-2,3.404059708E-1
8.184064500E0,-1.171790063E-4,-2.248212695E-4,1.408581287E-1
8.194114500E0,3.864248283E-4,-2.701941878E-2,6.746222079E-2
8.204164500E0,3.277221695E-4,6.029780023E-3,4.777896777E-2
8.214213500E0,2.856926527E-3,-1.695251092E-3,1.670307964E-1
8.224263500E0,1.693762839E-3,-8.152630180E-3,3.800599277E-1
8.234313500E0,-4.404875450E-3,-1.039820723E-2,4.238436222E-1
8.244362500E0,-2.886117436E-3,-2.079868130E-2,5.878319740E-1
8.254412500E0,-1.091794483E-2,-5.531311501E-3,6.286105514E-1
8.264462500E0,-1.269080862E-2,-2.587603591E-2,6.680477262E-1
8.274511500E0,-1.169664972E-2,-1.957712695E-2,5.506393313E-1
8.284561500E0,-6.173979025E-3,-1.588515937E-2,5.000371933E-1
8.294611500E0,-7.355357520E-3,-1.410190575E-2,4.436327219E-1
8.304660500E0,-9.232347831E-3,-1.356277149E-2,4.732653201E-1
8.314710500E0,-1.346384548E-2,-1.803421974E-2,6.382973790E-1
8.324760500E0,-6.594225764E-3,2.434193157E-3,7.889326215E-1
8.334809500E0,-9.366043843E-3,-4.683863372E-4,9.791965485E-1
8.344859500E0,-1.289818995E-2,-5.718696862E-3,8.673534989E-1
8.354909500E0,-7.699432783E-3,3.457224462E-3,8.529436588E-1
8.364958500E0,-2.527312608E-3,-2.666026819E-3,6.695771813E-1
8.375008500E0,-1.452194527E-3,-7.576629054E-3,6.719737649E-1
8.385058500E0,-2.235887107E-3,-1.115402672E-2,7.037668228E-1
8.395108500E0,-7.804024499E-3,1.538117789E-2,7.276761532E-1
8.405157500E0,-6.686172914E-3,3.944554366E-3,8.428787589E-1
8.415207500E0,-6.933580618E-3,-7.755510975E-3,9.085342288E-1
8.425257500E0,-2.942341147E-3,-8.399000391E-3,9.454351664E-1
8.435306500E0,-7.518983446E-3,-8.212313056E-3,7.464123368E-1
8.445356500E0,-1.012215391E-2,4.660463892E-4,8.634169102E-1
8.455406500E0,-1.638653688E-3,-5.695975851E-3,6.565792561E-1
8.465455500E0,-4.644411616E-3,-2.092056721E-2,4.610078037E-1
8.475505500E0,-5.258536432E-3,-1.082745194E-2,5.349046588E-1
8.485555500E0,-2.520388458E-3,-1.000710763E-4,2.862950265E-1
8.495604500E0,-7.695975713E-3,9.029777721E-3,2.112596631E-1
8.505654500E0,-1.387959719E-2,-4.634217359E-3,8.119800687E-2
8.515704500E0,-4.454403184E-3,2.708270028E-2,2.218184918E-1
8.525753500E0,-1.574733295E-2,1.731324010E-4,2.003242671E-1
8.535803500E0,6.825887132E-3,1.950981095E-2,6.671825796E-2
8.545853500E0,1.289075427E-2,3.729223460E-2,-7.876903564E-2
8.555902500E0,9.960744530E-3,-1.613349654E-3,-3.007669747E-1
8.565952500E0,1.432958990E-3,9.998423979E-3,-4.868692905E-2
8.576002500E0,-5.951453932E-3,-1.940740086E-2,2.390886694E-1
8.586051500E0,-7.699625567E-3,-1.567303203E-2,4.533107877E-1
8.596101500E0,-1.847264543E-2,-3.138248622E-2,5.817675591E-1
8.606151500E0,-3.063663840E-2,-3.982653469E-2,6.806887984E-1
8.616200500E0,-1.015932485E-2,-1.763414405E-2,6.291497350E-1
8.626250500E0,-7.880324498E-3,7.556708530E-3,5.174121261E-1
8.636300500E0,-3.489571158E-3,-1.357840467E-2,3.639759719E-1
8.646349500E0,-3.420571331E-3,-7.537172642E-3,3.514612913E-1
8.656399500E0,3.376081586E-3,1.102878898E-2,3.520227075E-1
8.666449500E0,2.541486640E-3,-1.040266454E-2,2.815765738E-1
8.676498500E0,4.990263376E-3,8.423486724E-3,2.399239391E-1
8.686548500E0,1.172123943E-3,-4.980776925E-3,2.719111145E-1
8.696598500E0,2.520216163E-3,-7.948200218E-4,3.854739070E-1
8.706647500E0,-9.587360546E-5,-1.619446650E-2,4.785584211E-1
8.716697500E0,-5.838980433E-3,-2.744632214E-2,5.171362162E-1
8.726747500E0,-7.143171504E-3,-3.270400316E-2,5.965201259E-1
8.736796875E0,5.624187179E-4,-2.889834717E-2,6.151393652E-1
8.746845875E0,2.122983336E-2,-4.514312744E-2,5.616731048E-1
8.756895875E0,2.302293852E-2,-7.500728220E-2,2.400966734E-1
8.766945875E0,1.949852705E-2,-6.238515675E-2,4.168947637E-1
8.776994875E0,8.342424780E-2,-1.535092145E-1,4.127160013E-1
8.787044875E0,7.193129510E-2,-1.309297383E-1,1.894963533E-1
8.797094875E0,7.279735059E-2,-1.415048838E-1,8.568658680E-2
8.807143875E0,3.629397228E-2,-6.611882150E-2,-5.243379250E-2
8.817193875E0,1.523928531E-2,-3.326180950E-2,-2.220222950E-1
8.827243875E0,1.134140417E-2,-1.166078448E-2,-5.915941000E-1
8.837292875E0,7.386077661E-3,9.234515019E-4,-1.035746574E0
8.847342875E0,3.578521777E-3,-1.138326246E-3,-1.288596034E0
8.857392875E0,-7.991847582E-3,2.589568868E-2,-1.506710529E0
8.867441875E0,-1.209871285E-2,1.439125277E-2,-1.255289078E0
8.877491875E0,-4.025045410E-2,9.278805554E-2,-1.249743581E0
8.887541875E0,-3.839111328E-2,6.814408302E-2,-1.032976747E0
8.897590875E0,-4.169929400E-2,9.350910783E-2,-9.115973711E-1
8.907640875E0,-5.203973874E-2,1.230393201E-1,-8.536653519E-1
8.917690875E0,-4.112504050E-2,1.030395180E-1,-9.247387052E-1
8.927739875E0,-9.366463870E-3,6.993678957E-2,-8.235982060E-1
8.937789875E0,-1.940471679E-2,5.734882504E-2,-7.766889930E-1
8.947839875E0,-1.200367324E-2,4.749917984E-2,-8.045297861E-1
8.957888875E0,-2.035994083E-3,1.365306787E-2,-9.440176487E-1
8.967938875E0,-5.562632810E-3,-7.813596167E-3,-1.010118961E0
8.977988875E0,9.474647231E-4,1.448318735E-2,-1.170908570E0
8.988038875E0,4.355618730E-4,3.228602931E-2,-1.157350540E0
8.998087875E0,2.556502819E-3,3.878068179E-2,-1.017275691E0
9.008137875E0,-1.074585598E-3,1.844899729E-2,-1.090209365E0
9.018187875E0,4.541488364E-3,6.920706481E-3,-9.773312807E-1
9.028236875E0,1.381043345E-3,1.022912189E-2,-9.753959775E-1
9.038286875E0,8.504200727E-3,1.423318405E-2,-8.684189320E-1
9.048336875E0,4.571841098E-3,1.481500454E-2,-6.926975250E-1
9.058385875E0,-9.702968411E-3,2.121937461E-2,-7.030053139E-1
9.068435875E0,1.106009632E-2,2.722122893E-2,-7.430050969E-1
9.078485875E0,1.210565493E-2,-1.094639674E-2,-8.680543303E-1
9.088534875E0,1.383328438E-2,-2.136020921E-3,-5.247980952E-1
9.098584875E0,7.254211698E-3,5.654257722E-3,-3.896075487E-1
9.108634875E0,7.694824133E-3,-2.317897975E-3,-1.985668987E-1
9.118683875E0,1.076784544E-2,2.696035197E-3,-1.752000600E-1
9.128733875E0,8.782685734E-3,1.975857280E-2,-1.483301669E-1
9.138783875E0,1.385041419E-2,2.318978868E-2,-1.839704514E-1
9.148832875E0,4.754807800E-3,1.548942737E-2,-2.982614338E-1
9.158882875E0,7.528224029E-3,1.289843768E-2,-5.223706961E-1
9.168932875E0,5.985023454E-3,1.935023814E-2,-4.244332612E-1
9.178981875E0,5.320298485E-3,2.818234637E-2,-4.293007255E-1
9.189031875E0,1.292385161E-3,1.689885743E-2,-3.511416316E-1
9.199081875E0,6.517773960E-3,-5.500989500E-3,-2.066534460E-1
9.209130875E0,-2.557446249E-3,1.818207838E-2,-1.589684188E-1
9.219180875E0,-1.246486790E-4,6.291064434E-3,-1.029016823E-1
9.229230875E0,-4.804050084E-3,7.918326184E-3,-2.131298482E-1
9.239279875E0,1.273253001E-4,6.251987070E-3,-2.702488005E-1
9.249329875E0,-3.525692038E-3,-1.889911946E-3,-1.652547866E-1
9.259379875E0,-2.218878828E-3,-8.703609928E-3,-1.878826022E-1
9.269428875E0,-4.975822754E-3,4.743153695E-3,-6.166161597E-2
9.279478875E0,-2.013077028E-4,1.605253294E-2,-3.569092453E-1
9.289528875E0,-9.402595460E-4,2.469374333E-3,-2.003755420E-1
9.299578875E0,5.754927173E-3,2.418186143E-2,-5.880247355E-1
9.309627875E0,2.647824585E-4,4.702098202E-3,-4.005015194E-1
9.319677875E0,8.274238557E-3,1.112670824E-2,-7.081352472E-1
9.329727875E0,5.654373206E-3,4.407986999E-3,-7.103020549E-1
9.339776875E0,8.694372140E-3,3.581064939E-2,-8.211726546E-1
9.349826875E0,5.005098414E-3,1.396432146E-2,-7.038030028E-1
9.359876875E0,6.902446039E-4,2.933475561E-2,-6.703883410E-1
9.369925875E0,8.102966473E-3,1.926441677E-2,-6.737738848E-1
9.379975875E0,1.353075355E-2,1.184298657E-2,-7.981946468E-1
9.390025875E0,6.737709045E-3,1.337691024E-2,-8.436865807E-1
9.400074875E0,1.715520397E-3,9.431703016E-3,-8.099837303E-1
9.410124875E0,5.429805722E-3,1.249806583E-2,-5.795571208E-1
9.420174875E0,5.393586587E-3,2.462317050E-2,-4.591643810E-1
9.430223875E0,1.269555464E-2,1.678585261E-2,-4.481920898E-1
9.440273875E0,1.285001822E-2,2.599480003E-2,-7.238065600E-1
9.450323875E0,7.200194988E-3,1.305293012E-2,-7.566795945E-1
9.460372875E0,3.226758447E-3,8.709047921E-3,-8.815174103E-1
9.470422875E0,4.997954704E-3,1.737254858E-2,-7.969574928E-1
9.480472875E0,-5.935387220E-3,2.884278446E-2,-6.878358126E-1
9.490521875E0,-1.423366833E-3,1.403851528E-2,-4.569551647E-1
9.500571875E0,4.003888927E-3,2.610263415E-2,-3.349150121E-1
9.510621875E0,1.167522743E-3,1.984624751E-2,-3.223919570E-1
9.520670875E0,-1.935592853E-3,-3.900472075E-4,-3.502869606E-1
9.530720875E0,-6.751692854E-3,3.133691847E-2,-4.415740669E-1
9.540770875E0,-9.233492427E-3,2.736774459E-2,-5.128713846E-1
9.550819875E0,-8.260020055E-3,1.040445641E-2,-3.886956573E-1
9.560869875E0,-5.866903346E-3,9.525346570E-3,-2.740114033E-1
9.570919875E0,-7.875503972E-3,1.208455954E-2,-7.552041113E-2
9.580968875E0,-6.731675938E-3,1.557303406E-2,1.270254999E-1
9.591018875E0,-1.072535943E-2,1.314668730E-2,2.122090012E-1
9.601068875E0,-1.094586961E-2,3.206705209E-3,4.311639667E-1
9.611118875E0,-7.920272648E-3,5.939104129E-3,5.854330063E-1
9.621167875E0,-9.944541380E-3,2.428259002E-3,6.942524314E-1
9.631217875E0,-7.184111048E-3,1.858795062E-3,5.633355379E-1
9.641267875E0,-5.685550161E-3,6.598156877E-3,2.954194248E-1
9.651316875E0,-2.937886631E-3,1.516275480E-2,2.420325279E-1
9.661366875E0,-2.044129651E-3,-7.359331008E-3,3.330785334E-1
9.671416875E0,1.507945824E-3,-3.476735670E-3,2.013324052E-1
9.681465875E0,4.561259877E-3,-3.988595214E-3,1.021717340E-1
9.691515875E0,5.644292571E-3,-7.388147991E-3,-2.462058514E-2
9.701565875E0,7.382538170E-3,-7.466178853E-3,-1.933896244E-1
9.711614875E0,1.291500032E-2,-1.219493058E-2,-3.888065219E-1
9.721664875E0,1.192217320E-2,-1.378270704E-2,-5.934848189E-1
9.731715000E0,1.395492256E-2,-1.765927486E-2,-5.980026722E-1
9.741764000E0,1.477091573E-2,-1.397852041E-2,-4.071608186E-1
9.751814000E0,1.509029604E-2,-9.856409393E-3,-1.351010948E-1
9.761864000E0,1.173204929E-2,-1.623281464E-2,1.287586335E-2
9.771913000E0,9.738648310E-3,-1.726825163E-2,1.255446970E-1
9.781963000E0,6.938599981E-3,-2.733314037E-2,2.529513836E-1
9.792013000E0,3.035118338E-3,-1.257468201E-2,2.684152722E-1
9.802062000E0,6.805622485E-3,-1.369214430E-2,3.611987233E-1
9.812112000E0,2.876696177E-3,-2.241350710E-2,6.131576896E-1
9.822162000E0,-6.855474785E-4,-2.099537291E-2,8.045926094E-1
9.832211000E0,-4.461593926E-3,-3.438465670E-2,9.867289662E-1
9.842261000E0,3.251722082E-4,-2.559888735E-2,9.425373077E-1
9.852311000E0,-9.246170521E-5,-1.522057503E-2,9.407760501E-1
9.862360000E0,-1.085882261E-2,-1.815963909E-2,8.967657089E-1
9.872410000E0,-1.262590103E-2,-3.150944784E-2,8.433942199E-1
9.882460000E0,-1.184239890E-2,-1.831295341E-2,7.123360634E-1
9.892509000E0,-1.245260797E-2,-2.311184444E-2,5.874162912E-1
9.902559000E0,-5.401622970E-3,-1.337692514E-2,2.545020282E-1
9.912609000E0,-1.553114969E-3,-5.559329875E-3,3.916249275E-1
9.922658000E0,-1.836032420E-2,-2.637939155E-2,8.855283856E-1
9.932708000E0,-7.563715801E-3,-2.204679325E-2,1.202835917E0
9.942758000E0,-1.529913396E-2,-2.988287807E-2,1.281317472E0
9.952808000E0,-1.889513806E-2,-4.853159189E-2,1.192301512E0
9.962857000E0,-1.113308966E-2,-1.532410085E-2,8.859559894E-1
9.972907000E0,-1.219521929E-2,-3.033588082E-2,6.515890360E-1
9.982957000E0,-7.696341258E-3,-2.405668050E-2,4.553883672E-1
9.993006000E0,-3.251539310E-3,-1.082658395E-2,2.880014777E-1
1.000305600E1,1.101397444E-3,-1.207453944E-2,5.466399789E-1
1.001310600E1,-5.802202970E-3,-1.530310605E-2,9.706878662E-1
1.002315500E1,-1.460741274E-2,-1.580103766E-3,1.295593739E0
1.003320500E1,-7.613706402E-4,-2.915249392E-2,1.394314885E0
1.004325500E1,-9.158317000E-3,-1.406062767E-2,1.116863608E0
1.005330400E1,-1.795900054E-2,5.501587875E-4,8.538843393E-1
1.006335400E1,-7.320737466E-3,-4.550761357E-2,7.596970797E-1
1.007340400E1,-5.022956058E-3,-1.063569169E-2,3.837114573E-1
1.008345300E1,3.997981548E-5,-2.560188062E-3,4.702658057E-1
1.009350300E1,-5.978540983E-3,-1.729883626E-2,3.717600405E-1
1.010355300E1,-1.170540228E-2,-4.780380521E-3,4.416469634E-1
1.011360200E1,-7.334813941E-3,1.298760995E-2,5.974205136E-1
1.012365200E1,-1.983191818E-3,-2.332538925E-2,6.294005513E-1
1.013370200E1,-6.576604210E-3,-2.580815926E-4,4.664149582E-1
1.014375100E1,-2.713688882E-3,-1.410012692E-2,4.107698202E-1
1.015380100E1,1.894600224E-3,-1.146320999E-2,2.542731464E-1
1.016385100E1,5.633145105E-3,-1.901327260E-2,2.146677077E-1
1.017390000E1,7.800806779E-3,-1.597796939E-2,3.181835413E-1
1.018395000E1,1.540724188E-4,-4.850749392E-3,5.212830901E-1
1.019400000E1,-3.028253093E-3,-5.494836252E-3,8.558631539E-1
1.020404900E1,-1.652197912E-3,-1.912143268E-2,9.496264458E-1
1.021409900E1,-1.684214454E-3,-1.317759883E-2,9.961110950E-1
1.022414900E1,-2.222705632E-3,-4.450952634E-3,7.775321603E-1
1.023419800E1,5.587465595E-3,-2.019756287E-2,7.212798595E-1
1.024424800E1,7.893230766E-3,-2.053525299E-2,5.375867486E-1
1.025429800E1,-2.901752945E-3,-1.256659441E-2,5.555520654E-1
1.026434800E1,-8.705047891E-3,2.988396911E-3,4.521447122E-1
1.027439700E1,-3.403830342E-4,2.092497796E-2,3.392341137E-1
1.028444700E1,-1.688260771E-2,1.089764386E-2,4.597693384E-1
1.029449700E1,-1.597102359E-2,1.299839281E-2,5.081906915E-1
1.030454600E1,-3.339650808E-3,2.462708578E-2,4.258877933E-1
1.031459600E1,-1.901198644E-3,4.261181504E-2,5.815587640E-1
1.032464600E1,-4.242117051E-3,3.687616810E-2,3.660986423E-1
1.033469500E1,5.885658320E-3,-2.271891572E-2,5.936037898E-1
1.034474500E1,-3.408123739E-4,-1.265962422E-2,4.473451376E-1
1.035479500E1,-1.256453805E-2,-1.801309548E-2,3.875320852E-1
1.036484400E1,-6.011031568E-3,-3.200348094E-2,3.059812784E-1
1.037489400E1,6.068545394E-3,-3.583261743E-2,2.665654719E-1
1.038494400E1,1.567962766E-2,-5.260280892E-2,2.135030478E-1
1.039499300E1,8.702292293E-2,-2.114538848E-1,1.642055660E-1
1.040504300E1,6.888839602E-2,-1.598402262E-1,9.802867472E-2
1.041509300E1,4.626571387E-2,-1.286604404E-1,-1.048580557E-2
1.042514200E1,-1.121621951E-2,4.429579712E-4,-1.261953562E-1
1.043519200E1,2.698721364E-3,-2.226211503E-2,-2.394926399E-1
1.044524200E1,1.758898795E-2,-4.878320545E-2,-2.552287281E-1
1.045529100E1,4.283054173E-2,-9.972979873E-2,-2.512084544E-1
1.046534100E1,4.419621080E-2,-1.058457494E-1,-2.764869332E-1
1.047539100E1,-3.099688515E-2,6.698154658E-2,-2.501678467E-1
1.048544000E1,-2.543354407E-2,5.666445941E-2,-3.205357492E-1
1.049549000E1,-8.460977674E-2,1.681583375E-1,-3.252797723E-1
1.050554000E1,-3.360358626E-2,7.737012208E-2,-1.921004057E-1
1.051558900E1,-3.027534671E-2,6.544500589E-2,-2.796717882E-1
1.052563900E1,-2.905561961E-2,6.908661127E-2,-2.641820312E-1
1.053568900E1,-1.593910903E-2,5.276473984E-2,-3.115706444E-1
1.054573800E1,-1.745045185E-2,5.695069954E-2,-3.300538063E-1
1.055578800E1,-7.509393618E-4,1.785194501E-2,-4.439965189E-1
1.056583800E1,-1.428326033E-2,4.599090666E-2,-5.876296163E-1
1.057588800E1,-4.116761498E-3,4.369318858E-2,-7.293025255E-1
1.058593700E1,1.872421708E-3,1.886001043E-2,-8.397539258E-1
1.059598700E1,4.082625732E-3,8.154815063E-3,-8.649525046E-1
1.060603700E1,9.814014658E-3,-3.496248275E-3,-8.704261184E-1
1.061608600E1,7.664794102E-3,1.405996643E-2,-8.206446767E-1
1.062613600E1,1.016736589E-2,-6.990055554E-4,-8.073264956E-1
1.063618600E1,1.081836037E-2,8.050603792E-3,-8.107997179E-1
1.064623500E1,7.670769934E-3,1.424964331E-2,-7.202485204E-1
1.065628500E1,6.587894168E-3,1.231116988E-2,-5.140015483E-1
1.066633500E1,5.972969811E-3,7.980582304E-4,-4.107110798E-1
1.067638400E1,-7.588881999E-4,-3.242084291E-3,-5.150245428E-1
1.068643400E1,8.804789744E-3,1.045908034E-2,-6.154238582E-1
1.069648400E1,1.050280221E-2,8.135618642E-3,-9.885151982E-1
1.070653300E1,1.297661103E-2,-3.673902713E-3,-1.024828911E0
1.071658300E1,1.849245839E-2,-1.121302415E-2,-1.027098656E0
1.072663300E1,1.063852943E-2,-1.156855654E-2,-8.908368349E-1
1.073668167E1,1.591930352E-2,-1.448536105E-2,-9.502979517E-1
1.074673167E1,1.092987135E-2,3.075790592E-3,-6.906676888E-1
1.075678167E1,5.023014266E-3,2.152894437E-2,-5.658042431E-1
1.076683067E1,1.333687082E-2,1.136206090E-2,-3.070318401E-1
1.077688067E1,-1.879251562E-3,3.730185097E-3,-7.074538469E-1
1.078693067E1,-1.217456069E-3,3.325650934E-3,-4.378545880E-1
1.079697967E1,-7.028245833E-3,1.494015846E-2,-1.776132435E-1
1.080702967E1,-8.201510645E-4,2.579253912E-2,-9.399335384E-1
1.081707967E1,6.247211713E-3,-1.728506759E-4,-6.794366837E-1
1.082712967E1,8.814765140E-3,-1.517310459E-2,-7.430965900E-1
1.083717867E1,-6.687832531E-3,1.481379196E-2,-7.471230626E-1
1.084722867E1,5.609047599E-3,2.070124075E-2,-5.843802094E-1
1.085727767E1,2.028748859E-3,8.540526964E-3,-6.386935115E-1
1.086732767E1,-4.442622885E-4,2.591291675E-3,-5.719656348E-1
1.087737767E1,6.986464839E-3,1.690494362E-3,-6.816599369E-1
1.088742767E1,1.225514337E-3,-2.095988020E-3,-6.861660480E-1
1.089747667E1,1.315239444E-2,1.332050888E-3,-6.368334293E-1
1.090752667E1,5.191405769E-3,1.347526629E-2,-6.492128372E-1
1.091757667E1,-1.325689256E-3,-1.153239980E-3,-4.962877631E-1
1.092762567E1,7.096557412E-3,3.762558103E-2,-1.031325340E0
1.093767567E1,7.835851982E-3,1.800687239E-2,-1.001565576E0
1.094772567E1,1.404234767E-2,2.402215451E-2,-9.578005672E-1
1.095777467E1,-2.841067500E-3,2.053014748E-2,-9.707688689E-1
1.096782467E1,8.005188778E-3,-2.953872550E-3,-9.490811229E-1
1.097787467E1,-5.139899440E-4,8.667207323E-3,-8.831954598E-1
1.098792367E1,8.335709572E-5,6.783287041E-3,-7.770498395E-1
1.099797367E1,8.411297575E-3,1.503646281E-2,-6.816167235E-1
1.100802367E1,-2.177431714E-3,6.412779912E-4,-4.479102790E-1
1.101807267E1,7.366626523E-4,-1.049773954E-2,-3.699564636E-1
1.102812267E1,-2.819989109E-3,3.744262084E-2,-3.261304200E-1
1.103817267E1,-6.728391163E-4,2.364880219E-2,-3.913720548E-1
1.104822167E1,3.575169016E-3,1.206911169E-2,-5.721588731E-1
1.105827167E1,7.533464115E-3,3.459442779E-2,-6.136439443E-1
1.106832167E1,1.650807913E-3,3.378642350E-2,-6.167158484E-1
1.107837067E1,-5.215671845E-4,8.592429571E-3,-5.691368580E-1
1.108842067E1,5.685462151E-3,3.428873792E-2,-6.069568992E-1
1.109847067E1,-3.372320440E-3,-1.079403888E-2,-6.085199118E-1
1.110851967E1,4.687203560E-3,1.213391311E-2,-5.653184056E-1
1.111856967E1,4.345076159E-4,2.542014606E-2,-7.204036117E-1
1.112861967E1,1.410610974E-2,2.563452907E-2,-6.531379819E-1
1.113866867E1,1.023135986E-2,1.547196507E-2,-5.281949639E-1
1.114871867E1,-1.227445900E-4,1.087508164E-2,-2.925339937E-1
1.115876867E1,-6.729096640E-3,1.815876737E-2,-2.665973008E-1
1.116881767E1,-2.003317233E-3,1.615899801E-2,-3.112281561E-1
1.117886767E1,1.118067186E-3,2.469041198E-2,-3.376202583E-1
1.118891767E1,-4.777105991E-3,3.655932099E-2,-2.712934315E-1
1.119896767E1,-7.951851934E-3,2.365641296E-2,-4.239914194E-2
1.120901667E1,-9.538829327E-3,5.717627704E-3,2.509632409E-1
1.121906667E1,-1.156104915E-2,2.022639289E-2,3.394561708E-1
1.122911667E1,-1.133361459E-2,9.554838762E-3,4.939898252E-1
1.123916567E1,-1.649748348E-2,3.632493317E-2,4.533116519E-1
1.124921567E1,-2.023017034E-2,2.488799021E-2,4.064674377E-1
1.125926567E1,-1.552732475E-2,2.047676779E-2,2.569328547E-1
1.126931467E1,-1.263699681E-2,8.313045837E-3,3.435002565E-1
1.127936467E1,-1.540347002E-2,1.194149349E-2,4.219730198E-1
1.128941467E1,-1.006090268E-2,1.384645235E-2,5.185850263E-1
1.129946367E1,-1.373510063E-2,1.815675013E-2,5.868059397E-1
1.130951367E1,-1.466667466E-2,1.321445592E-2,6.539391875E-1
1.131956367E1,-1.218956150E-2,7.931532338E-3,6.808701158E-1
1.132961267E1,-8.529845625E-3,3.188175848E-3,6.308889985E-1
1.133966267E1,-6.027430296E-3,1.703600632E-3,5.474292636E-1
1.134971267E1,-8.938798681E-3,1.942752395E-3,4.250946045E-1
1.135976167E1,-5.466758739E-3,4.395931959E-3,2.846367061E-1
1.136981167E1,-2.716246061E-3,6.204484962E-3,1.489284039E-1
1.137986167E1,5.432076287E-3,-6.344880443E-3,7.601927966E-2
1.138991067E1,2.739354502E-3,-8.236523718E-3,7.297848165E-2
1.139996067E1,2.890164033E-3,-8.448902518E-3,5.240891129E-2
1.141001067E1,2.854743972E-3,-5.791865755E-3,5.606143549E-2
1.142005967E1,2.327822614E-3,-2.971785609E-3,7.241441309E-2
1.143010967E1,2.508118283E-3,-3.520130645E-3,3.675202653E-2
1.144015967E1,5.543891340E-3,5.858251825E-5,-3.732918948E-2
1.145020867E1,7.661104202E-3,2.617817372E-4,-8.897906542E-2
1.146025867E1,6.563539151E-3,-4.647745751E-3,2.622195752E-3
1.147030867E1,4.021019209E-3,-5.073319189E-3,1.375049204E-1
1.148035867E1,4.916184582E-3,-1.042788103E-2,2.424641103E-1
1.149040767E1,4.089006223E-3,-1.261486858E-2,3.092212975E-1
1.150045767E1,7.372416556E-3,-1.218488161E-2,2.943916321E-1
1.151050767E1,6.376394071E-3,-9.259931743E-3,3.669795394E-1
1.152055667E1,4.927299917E-3,-6.519607734E-3,4.999181628E-1
1.153060667E1,5.450443923E-2,-2.871226147E-2,5.614230633E-1
1.154065667E1,1.924916916E-2,-1.931490377E-2,6.378305554E-1
1.155070567E1,3.754896577E-3,-3.909340501E-2,6.690390706E-1
1.156075567E1,3.611200023E-3,-2.123035956E-3,6.704519987E-1
1.157080567E1,8.091330528E-5,-1.025579683E-2,8.171359897E-1
1.158085467E1,-1.751158386E-2,-2.538374439E-2,9.560998678E-1
1.159090467E1,-9.822504595E-3,-1.329246070E-2,9.790965319E-1
1.160095467E1,2.293315250E-3,-1.807900146E-2,1.055112958E0
1.161100367E1,-7.310044020E-3,-1.801055856E-2,1.065976739E0
1.162105367E1,-1.449647266E-2,-3.178896755E-2,1.036519527E0
1.163110367E1,-9.428743273E-3,-1.609229948E-3,9.112707973E-1
1.164115267E1,-8.681606501E-3,-2.486682683E-2,9.045788646E-1
1.165120267E1,-1.674379408E-2,-9.967237711E-3,8.231737614E-1
1.166125267E1,-8.622452617E-3,-1.758920774E-2,9.403818846E-1
1.167130167E1,-8.906079456E-3,-2.533026505E-3,1.007925391E0
1.168135167E1,-1.650582068E-2,-2.658013627E-2,9.887935519E-1
1.169140167E1,-1.169721689E-2,-8.696209639E-3,9.006043077E-1
1.170145067E1,-1.001409721E-3,-1.058763638E-2,6.705527306E-1
1.171150067E1,-1.357286144E-2,-4.729611427E-2,4.810957313E-1
1.172155067E1,-7.226149086E-3,-6.915718317E-3,3.907431066E-1
1.173160062E1,-1.120304689E-2,-4.064758122E-2,3.416599631E-1
1.174165062E1,4.802357871E-3,-3.701723181E-4,4.179984331E-1
1.175170062E1,-7.454308216E-3,-1.774836332E-2,6.324769258E-1
1.176174962E1,-6.911329925E-3,-1.479578577E-2,7.687667608E-1
1.177179962E1,-1.071938314E-2,-1.610313170E-2,7.481581569E-1
1.178184962E1,-8.710486814E-3,-1.355179586E-2,6.752173901E-1
1.179189962E1,-2.691742731E-3,-2.093194798E-2,5.370224714E-1
1.180194862E1,-5.015046336E-4,6.395037286E-3,3.278962374E-1
1.181199862E1,3.669005353E-3,-1.983842999E-2,2.790189981E-1
1.182204862E1,2.187028062E-3,-3.021514416E-2,3.884525597E-1
1.183209762E1,2.157567069E-4,2.212715894E-2,5.479918718E-1
1.184214762E1,-1.237917878E-2,-2.905231714E-2,8.176913261E-1
1.185219762E1,-1.188169979E-2,-1.535514928E-2,8.351166844E-1
1.186224662E1,-6.049708929E-3,-6.803125143E-3,7.430648804E-1
1.187229662E1,-1.014937833E-2,-2.003637329E-2,6.492361426E-1
1.188234662E1,-2.500111796E-2,-2.082491666E-2,4.092852771E-1
1.189239562E1,-3.724591108E-3,-6.184455007E-3,3.291768432E-1
1.190244562E1,-3.652347252E-3,7.907842286E-3,2.868721783E-1
1.191249562E1,-5.680610426E-3,-6.743538193E-3,3.502623141E-1
1.192254462E1,-9.309797548E-3,1.163089881E-3,3.519662917E-1
1.193259462E1,-9.601679631E-3,1.395317493E-3,4.255097508E-1
1.194264462E1,-2.227894496E-3,1.241239905E-2,4.595910609E-1
1.195269362E1,-7.550754584E-3,1.654935256E-2,5.541694760E-1
1.196274362E1,-1.096028928E-2,-3.441557661E-2,5.312976837E-1
1.197279362E1,1.034588087E-3,4.430506751E-2,4.114724994E-1
1.198284262E1,-2.730886219E-3,4.183636513E-3,1.842145175E-1
1.199289262E1,6.123857573E-3,-1.386364922E-3,1.534890980E-1
1.200294262E1,7.940279320E-3,-2.971632965E-2,2.683905363E-1
1.201299163E1,2.101297956E-3,-2.564675175E-2,3.819048405E-1
1.202304162E1,9.095679037E-3,-6.065804977E-3,4.700534642E-1
1.203309162E1,-9.899582714E-3,-6.445934623E-2,2.931306064E-1
1.204314062E1,-2.277546097E-3,-4.155783728E-2,5.174211264E-1
1.205319062E1,-3.324434860E-3,-1.100898162E-2,4.454377294E-1
1.206324062E1,-5.102463532E-3,-6.382414140E-3,5.230112672E-1
1.207328962E1,-7.071338594E-3,7.324866019E-4,5.280419588E-1
1.208333962E1,-2.174656466E-2,6.608425640E-3,6.039138436E-1
1.209338962E1,-1.572781987E-2,-3.900407813E-3,6.272564530E-1
1.210343962E1,1.848387066E-3,-2.267803252E-2,5.908369422E-1
1.211348862E1,1.136524137E-3,-1.687846333E-2,4.640845656E-1
1.212353862E1,-4.230551887E-3,-1.192403026E-2,1.659605950E-1
1.213358863E1,-3.330669599E-3,-4.793149885E-3,-8.509400487E-2
1.214363762E1,-8.570819162E-3,5.279891659E-3,-3.324594200E-1
1.215368762E1,-8.797187358E-3,1.122859493E-2,-4.384793341E-1
1.216373763E1,-9.502628818E-4,-2.107227221E-3,-4.022544026E-1
1.217378662E1,2.833023667E-3,-2.164950222E-2,-3.551630676E-1
1.218383662E1,1.356921345E-2,-4.484503716E-2,-2.940601408E-1
1.219388662E1,2.116694674E-2,-4.500456154E-2,-2.250256985E-1
1.220393562E1,1.534204371E-2,-4.369214922E-2,-2.250445187E-1
1.221398562E1,2.851030976E-2,-5.989295989E-2,-1.393421292E-1
1.222403562E1,1.924775727E-2,-3.795234114E-2,6.297751516E-2
1.223408462E1,-7.751103491E-3,1.103277784E-2,3.438653648E-1
1.224413462E1,-2.304156311E-2,5.056590587E-2,6.255533695E-1
1.225418462E1,-1.888889633E-2,3.112057224E-2,8.161073327E-1
1.226423362E1,-1.438122336E-2,1.272170246E-2,8.205203414E-1
1.227428362E1,-8.009610698E-3,-1.945924014E-3,5.005804300E-1
1.228433362E1,2.738940995E-3,-1.638668962E-2,8.046156168E-1
1.229438262E1,1.350263879E-2,-2.580868825E-2,7.438369989E-1
1.230443262E1,3.336369619E-2,-6.018529832E-2,6.620752811E-1
1.231448262E1,4.363976792E-2,-7.420950383E-2,2.906649709E-1
1.232453162E1,4.899290577E-2,-9.439131618E-2,-1.952140182E-1
1.233458162E1,1.232532933E-1,-2.556619644E-1,-6.033753753E-1
1.234463162E1,4.876019061E-2,-1.074752882E-1,-1.029373527E0
1.235468162E1,5.043638498E-2,-1.165092662E-1,-1.175610185E0
1.236473062E1,1.625737362E-2,-4.975243658E-2,-1.186313748E0
1.237478062E1,1.469063573E-2,-6.360354275E-2,-1.017615557E0
1.238483062E1,3.783585038E-3,-1.272973511E-2,-9.775454998E-1
1.239487962E1,5.132742692E-3,2.228337526E-2,-1.021968365E0
1.240492962E1,6.784434896E-3,8.608310483E-3,-1.036199450E0
1.241497962E1,1.972073875E-2,-1.945421472E-2,-1.053991318E0
1.242502862E1,8.193094283E-3,1.916730963E-2,-1.163847566E0
1.243507862E1,6.514237728E-3,-2.550502308E-3,-1.330369473E0
1.244512862E1,4.436428659E-3,1.069525070E-2,-1.249855638E0
1.245517763E1,-5.506067537E-4,5.232841242E-3,-1.149636388E0
1.246522762E1,4.728815053E-3,-1.811571419E-4,-9.841269255E-1
1.247527762E1,-2.250531688E-3,3.067316115E-2,-7.994026542E-1
1.248532662E1,1.216249261E-2,-1.355074346E-6,-7.870407701E-1
1.249537662E1,-1.271622628E-2,1.052372344E-2,-8.457797170E-1
1.250542662E1,-7.822124287E-3,-1.138097234E-2,-7.157656550E-1
1.251547562E1,-8.453208208E-2,1.178017855E-1,-8.144924641E-1
1.252552562E1,-7.792349160E-2,9.993190318E-2,-8.310267925E-1
1.253557562E1,-1.205548421E-1,1.582586020E-1,-8.290249109E-1
1.254562462E1,-5.477410555E-2,8.190357685E-2,-1.124435544E0
1.255567462E1,-1.570127159E-2,1.912700757E-2,-1.399712324E0
1.256572462E1,-2.861159854E-2,1.481727418E-2,-1.600810766E0
1.257577463E1,-3.165825456E-2,-7.411739230E-2,-1.659884810E0
1.258582362E1,9.000299498E-3,-7.759145647E-2,-1.520889401E0
1.259587362E1,-8.721440099E-3,2.831667364E-1,-1.506401777E0
1.260592363E1,2.117367834E-2,1.665053889E-2,-1.267643571E0
1.261597262E1,1.977125742E-2,9.587025642E-2,-1.043505907E0
1.262602262E1,6.498423964E-2,-7.953358442E-2,-9.841858745E-1
1.263607262E1,7.212869823E-2,-6.948654354E-2,-8.673082590E-1
1.264612162E1,7.025562227E-2,-8.909372240E-2,-4.906168282E-1
1.265617162E1,5.470729247E-2,-4.067878425E-2,-4.768847823E-1
1.266622162E1,2.665500529E-2,-4.122425616E-2,-2.998934984E-1
1.267627062E1,-9.078490548E-3,3.130374104E-2,-3.536150455E-1
1.268632062E1,-2.470533736E-2,3.763212264E-2,-1.731640995E-1
1.269637062E1,1.516830921E-2,5.481723323E-2,-9.921529889E-2
1.270641962E1,-2.582173795E-3,5.641566962E-2,7.222507894E-2
1.271646962E1,-3.194459155E-2,8.164911717E-2,8.872655779E-2
1.272651962E1,-1.074114721E-2,6.967039406E-2,2.780351341E-1
1.273656775E1,-5.702688359E-4,2.630103379E-3,4.134941697E-1
1.274661775E1,-1.540400088E-2,3.399950638E-2,5.105333924E-1
1.275666775E1,-9.910698980E-3,2.707821690E-2,4.989638031E-1
1.276671675E1,-4.495162051E-3,3.047043830E-2,4.382236302E-1
1.277676675E1,-7.811862975E-3,6.714083254E-2,2.619689703E-1
1.278681675E1,-4.439898767E-4,4.873120040E-2,2.497017235E-1
1.279686575E1,6.007517688E-3,1.029459573E-2,2.890147567E-1
1.280691575E1,-4.724445753E-4,4.505317658E-2,2.869535685E-1
1.281696575E1,-3.501763940E-2,1.097325757E-1,2.504853010E-1
1.282701475E1,-9.705284983E-2,1.594060957E-1,2.176535781E-4
1.283706475E1,-1.169008538E-1,1.357806623E-1,-2.440994084E-1
1.284711475E1,-6.518863142E-2,1.155768111E-1,-4.872881770E-1
1.285716475E1,-6.391963363E-2,1.181720570E-1,-6.822448373E-1
1.286721375E1,-1.807935163E-2,1.047891229E-1,-6.987847090E-1
1.287726375E1,-2.496628463E-2,2.962246537E-2,-6.544489264E-1
1.288731375E1,-1.290964708E-2,1.626440696E-2,-5.966838598E-1
1.289736275E1,-8.954320103E-3,1.786549948E-2,-5.963166356E-1
1.290741275E1,-7.130320184E-3,2.902053110E-2,-5.277349949E-1
1.291746275E1,-1.638083253E-3,1.342292875E-2,-4.129616022E-1
1.292751175E1,-1.627165824E-2,6.781199947E-3,-2.866703272E-1
1.293756175E1,-1.760536991E-2,-1.778465696E-3,-1.282122284E-1
1.294761175E1,-1.494122110E-2,5.700082052E-3,-7.642821409E-3
1.295766075E1,-1.072810031E-2,-2.741339616E-3,2.425732091E-2
1.296771075E1,-2.063014545E-2,-3.298840299E-2,1.088154539E-1
1.297776075E1,1.112693027E-1,2.786640227E-1,-4.134581611E-2
1.298780975E1,1.181391925E-1,2.326475382E-1,5.468293093E-3
1.299785975E1,1.314485967E-1,2.306395173E-1,6.519900262E-2
1.300790975E1,1.647095084E-1,2.870209813E-1,9.764551371E-2
1.301795875E1,-1.662007719E-2,-1.713173091E-2,1.031236351E-1
1.302800875E1,1.276726089E-2,3.700848296E-2,1.589669734E-1
1.303805875E1,-2.719819546E-3,3.873967798E-3,1.148216203E-1
1.304810775E1,-7.786561269E-3,1.081668772E-2,2.530613542E-1
1.305815775E1,-1.412222162E-2,-6.024876144E-3,3.955007792E-1
1.306820775E1,-2.092883438E-1,-3.546939492E-1,5.465284586E-1
1.307825675E1,3.906527534E-2,9.431394935E-2,1.792322099E-1
1.308830675E1,1.274180692E-2,2.675876208E-2,3.784119487E-1
1.309835675E1,4.099848680E-3,1.057579741E-2,5.066588521E-1
1.310840575E1,6.645313930E-3,1.008690894E-2,6.642007232E-1
1.311845575E1,-6.877434254E-2,-8.953502029E-2,7.918473482E-1
1.312850575E1,-1.565334648E-1,-2.537160814E-1,8.298967481E-1
1.313855475E1,-8.152633160E-2,-1.686741710E-1,7.080033422E-1
1.314860475E1,-6.340222806E-2,-1.597108692E-1,5.999622941E-1
1.315865475E1,-2.145584300E-2,-6.233690679E-2,4.749905467E-1
1.316870475E1,-1.064412948E-2,-4.569574445E-2,6.051396728E-1
1.317875375E1,-7.096000016E-3,-4.826915637E-2,7.838013172E-1
1.318880375E1,1.908957958E-2,7.821988314E-3,7.864715457E-1
1.319885375E1,-3.625054378E-3,-7.742056623E-3,7.747107744E-1
1.320890275E1,-1.132517867E-2,-3.387065232E-2,5.133299232E-1
1.321895275E1,-9.767761454E-3,-4.996360093E-2,1.810081899E-1
1.322900275E1,-1.384658366E-2,-6.172968447E-2,-1.044469699E-1
1.323905175E1,6.821143441E-3,-7.004183717E-4,-1.987660080E-1
1.324910175E1,2.392157447E-3,-2.669185959E-2,-5.346771330E-2
1.325915175E1,-7.751402445E-4,-2.371125109E-2,3.378313184E-1
1.326920075E1,-2.355388179E-2,-3.230029345E-2,8.005101681E-1
1.327925075E1,-1.549329422E-2,-2.117440850E-2,9.194469452E-1
1.328930075E1,-1.180115342E-2,-3.935907409E-2,6.149714589E-1
1.329934975E1,-5.501711741E-3,-1.099720970E-2,1.823558807E-1
1.330939975E1,5.594721530E-3,-1.669904962E-2,-8.693556488E-2
1.331944975E1,9.752027690E-4,-2.153348550E-2,-2.224896699E-1
1.332949875E1,3.802680876E-3,-1.644391753E-2,-2.351125181E-1
1.333954875E1,4.653027747E-3,-2.762067318E-2,3.174007535E-1
1.334959875E1,4.237000830E-3,1.409330033E-2,8.908845782E-1
1.335964775E1,-1.144528948E-2,-2.478538826E-2,9.291989207E-1
1.336969775E1,-9.863242507E-3,-2.522544190E-2,9.820461273E-1
1.337974775E1,-1.288752817E-2,-1.307593659E-3,8.603516221E-1
1.338979675E1,-6.786392070E-3,-4.629756138E-2,6.178003550E-1
1.339984675E1,-9.207795374E-4,3.128168173E-4,4.013841450E-1
1.340989675E1,8.720965125E-3,-6.325688213E-3,1.965009868E-1
1.341994575E1,6.679652259E-3,1.052972488E-2,2.499852479E-1
1.342999575E1,8.156945929E-3,1.691434346E-2,4.219268560E-1
1.344004575E1,1.619950868E-3,-1.770675182E-2,6.976359487E-1
1.345009475E1,-1.320627704E-2,-5.320751108E-3,1.066205502E0
1.346014475E1,-1.170398854E-2,-9.130668826E-3,1.069543958E0
1.347019475E1,-1.209813543E-2,-1.426391304E-2,9.471261501E-1
1.348024475E1,-1.033885218E-2,-1.686262526E-2,7.591397166E-1
1.349029375E1,-1.065728441E-2,-4.079046659E-3,6.232382655E-1
1.350034375E1,-1.043863967E-2,-3.017003462E-2,5.147085786E-1
1.351039375E1,-2.192725055E-2,-2.002152801E-2,4.544388652E-1
1.352044275E1,-1.573753171E-2,-2.334275469E-2,7.074207664E-1
1.353049275E1,-4.971943330E-3,7.797854021E-3,7.991466522E-1
1.354054275E1,-8.500631899E-3,-2.477526851E-2,8.331258893E-1
1.355059175E1,-7.675927132E-3,-4.607825074E-3,6.718654633E-1
1.356064175E1,-1.110181771E-2,-1.276828162E-2,4.367352724E-1
1.357069175E1,1.110514626E-2,4.846329335E-3,-8.358838968E-3
1.358074075E1,-9.740212932E-3,-3.838023916E-2,2.460950166E-1
1.359079075E1,-2.206478734E-3,-1.013313886E-2,1.757776737E-1
1.360084075E1,5.354501307E-3,-2.401380055E-2,3.675977290E-1
1.361088975E1,-9.300718084E-3,2.929950319E-2,6.547525525E-1
1.362093975E1,-1.503556967E-2,4.516925197E-3,8.685945272E-1
1.363098975E1,1.077503897E-3,-8.273383602E-3,8.227251172E-1
1.364103875E1,-3.853701055E-4,-1.560932584E-2,7.151834965E-1
1.365108875E1,-1.485059503E-3,-1.466195658E-2,4.603227973E-1
1.366113875E1,-5.150900688E-3,2.841669600E-3,5.466164351E-1
1.367118775E1,9.767184034E-3,2.443691716E-2,4.912689626E-1
1.368123775E1,-8.251497522E-3,1.206866559E-2,5.279721022E-1
1.369128775E1,-4.768850282E-3,-1.508702058E-3,5.903972983E-1
1.370133675E1,-7.471958641E-3,9.127164260E-3,6.087257266E-1
1.371138675E1,-1.396695897E-2,-8.495552465E-4,6.684969068E-1
1.372143675E1,-7.587356493E-3,3.343038633E-2,5.745371580E-1
1.373148575E1,-1.196951047E-2,3.016229719E-2,5.372686982E-1
1.374153629E1,-1.667638123E-2,8.997356519E-3,5.644486547E-1
1.375158629E1,-5.839753430E-3,-1.307803486E-2,5.689631104E-1
1.376163529E1,9.490467608E-3,1.202518679E-2,5.163406134E-1
1.377168529E1,-2.781146439E-3,7.449919358E-4,5.741758943E-1
1.378173529E1,-1.189608127E-2,-1.267973706E-2,8.904680610E-1
1.379178429E1,-3.150100121E-3,2.215228975E-2,7.174515724E-1
1.380183429E1,-1.467865705E-2,-1.221020985E-2,5.837667584E-1
1.381188429E1,-4.472828936E-3,5.352228880E-3,2.580457926E-1
1.382193429E1,-1.748716459E-2,-3.169500455E-2,5.470829010E-1
1.383198329E1,-1.196996868E-2,-1.993329637E-2,2.027797103E-1
1.384203329E1,-4.008182324E-3,4.229564220E-3,1.448900402E-1
1.385208329E1,-1.168595813E-2,-3.072132170E-2,2.138824165E-1
1.386213229E1,-7.112511434E-3,-7.112245075E-4,2.921689451E-1
1.387218229E1,-7.214248180E-3,-6.565497722E-3,3.155444264E-1
1.388223229E1,-9.996452369E-3,-2.144990489E-2,5.109421611E-1
1.389228129E1,-9.171707556E-3,-9.804392233E-3,4.566811323E-1
1.390233129E1,-3.714091145E-3,-1.465480588E-2,3.476784825E-1
1.391238129E1,3.149720840E-3,-1.101435255E-2,1.329938173E-1
1.392243029E1,1.007873379E-2,3.250862285E-2,-1.505028754E-1
1.393248029E1,1.415686682E-3,1.090225670E-2,-1.326726973E-1
1.394253029E1,2.874566242E-3,3.446737304E-3,3.670407459E-2
1.395257929E1,1.855069771E-3,5.104066804E-3,1.752761304E-1
1.396262929E1,-2.542075235E-3,3.641727380E-4,2.805125415E-1
1.397267929E1,-3.258690704E-3,-1.349446736E-2,2.848632932E-1
1.398272829E1,1.226072665E-3,-3.534511197E-3,1.019952074E-1
1.399277829E1,6.203067023E-3,-9.288398549E-3,-2.422102094E-1
1.400282829E1,1.061086357E-2,-1.315450948E-2,-5.195472836E-1
1.401287729E1,1.055622660E-2,-1.628044248E-2,-6.330897808E-1
1.402292729E1,1.423032396E-2,-1.963868923E-2,-6.520394683E-1
1.403297729E1,1.261321455E-2,-2.524190024E-2,-6.467658281E-1
1.404302629E1,1.583484001E-2,-1.044777222E-2,-6.167467237E-1
1.405307629E1,2.860714495E-2,-6.770612299E-2,-5.617462993E-1
1.406312629E1,3.665601462E-2,-7.486762851E-2,-6.373656988E-1
1.407317529E1,3.229245916E-2,-6.087835506E-2,-6.926932335E-1
1.408322529E1,5.979465693E-2,-1.082661077E-1,-6.453496814E-1
1.409327529E1,6.769464910E-2,-1.358761191E-1,-6.328546405E-1
1.410332529E1,-8.274181746E-4,1.089715399E-3,-5.889106393E-1
1.411337429E1,1.622887328E-2,-5.075230077E-2,-4.606840611E-1
1.412342429E1,3.193300217E-2,-6.843569130E-2,-2.416084707E-1
1.413347429E1,2.776292525E-2,-4.885803163E-2,-4.840316176E-1
1.414352329E1,1.820084453E-2,-3.468894958E-2,-4.662033319E-1
1.415357329E1,1.449588314E-2,-3.959703445E-2,-4.537650645E-1
1.416362329E1,3.393376619E-2,-1.111018434E-1,-4.273446500E-1
1.417367229E1,6.558021531E-3,-4.143517837E-2,-8.433480859E-1
1.418372229E1,-9.701375850E-3,-7.492681034E-4,-8.209127784E-1
1.419377229E1,-1.182292588E-2,2.422423102E-2,-8.363732696E-1
1.420382129E1,-2.512994409E-2,4.801904410E-2,-8.566825390E-1
1.421387129E1,-6.622418296E-3,8.065937087E-3,-9.903525710E-1
1.422392129E1,-2.956927940E-2,6.634388864E-2,-9.596694708E-1
1.423397029E1,1.046785340E-2,-4.178857431E-3,-1.115112901E0
1.424402029E1,-2.668857016E-2,7.436575741E-2,-1.121985555E0
1.425407029E1,-6.919456180E-3,2.719858661E-2,-1.154434681E0
1.426411929E1,2.504966222E-2,-3.888722137E-2,-1.183509231E0
1.427416929E1,-1.136114355E-3,2.176338062E-2,-1.084677815E0
1.428421929E1,-1.200980134E-2,4.643224180E-2,-1.111693740E0
1.429426829E1,2.386713587E-2,-3.223052248E-2,-1.396089196E0
1.430431829E1,3.222626820E-2,-3.079694137E-2,-1.424188733E0
1.431436829E1,2.606426924E-2,4.648559541E-2,-1.483302474E0
1.432441829E1,2.960786968E-2,3.420099318E-1,-1.498072624E0
1.433446729E1,6.037351117E-2,1.485735625E-1,-1.564351559E0
1.434451729E1,4.934962466E-2,1.389112510E-2,-1.633254170E0
1.435456729E1,7.835857570E-2,6.384278834E-2,-1.623675346E0
1.436461629E1,2.831272222E-2,4.256892204E-2,-1.522651792E0
1.437466629E1,2.650403976E-2,1.646943204E-2,-1.415192127E0
1.438471629E1,3.176191822E-2,2.969788387E-2,-1.425776362E0
1.439476529E1,1.841308549E-2,5.102609750E-3,-1.380296350E0
1.440481529E1,4.046192765E-2,4.951055348E-2,-1.311419606E0
1.441486529E1,5.200859904E-2,4.749571905E-2,-1.095690489E0
1.442491429E1,2.697035857E-2,2.198796161E-2,-9.565060139E-1
1.443496429E1,3.234054893E-3,2.197998576E-2,-6.888964772E-1
1.444501429E1,-4.687517881E-3,2.035824582E-5,-6.152089238E-1
1.445506329E1,-6.280983798E-4,5.332862958E-2,-7.144659758E-1
1.446511329E1,3.446272109E-3,-3.200958017E-3,-7.536122799E-1
1.447516329E1,1.283345744E-2,2.238379233E-2,-7.289601564E-1
1.448521229E1,1.811450534E-2,3.808738664E-2,-8.281538486E-1
1.449526229E1,1.784465276E-2,3.398902342E-2,-7.842013836E-1
1.450531229E1,1.243204437E-2,9.583813138E-3,-8.682608604E-1
1.451536129E1,-1.247241162E-4,-2.501388546E-3,-8.110913634E-1
1.452541129E1,-2.324229479E-2,-2.559951693E-2,-7.810359597E-1
1.453546129E1,6.844084244E-3,2.980353497E-2,-6.696964502E-1
1.454551029E1,8.988196030E-3,1.465904294E-3,-5.926450491E-1
1.455556029E1,1.594449766E-2,5.483993143E-2,-6.171953082E-1
1.456561029E1,4.900445044E-2,5.730708316E-2,-5.699361563E-1
1.457566029E1,5.005327612E-2,6.131064147E-2,-6.178197861E-1
1.458570929E1,1.972066611E-2,3.994621802E-3,-4.998676181E-1
1.459575929E1,2.117535286E-2,1.848483458E-2,-3.707193434E-1
1.460580929E1,7.200948428E-3,1.189510897E-2,-2.288673967E-1
1.461585829E1,-1.277187839E-4,1.594332792E-2,-4.238242656E-2
1.462590829E1,-4.064669833E-3,1.569512114E-2,3.721683519E-3
1.463595829E1,-2.159414068E-2,2.089753561E-2,1.197549254E-1
1.464600729E1,-1.698900014E-2,7.810761686E-3,1.505389363E-1
1.465605729E1,-1.176223718E-2,8.249148726E-3,1.414805502E-1
1.466610729E1,-1.706246100E-2,1.602691039E-2,1.632513553E-1
1.467615629E1,-1.871986315E-2,3.289866727E-3,1.877048016E-1
1.468620629E1,-1.550383121E-2,1.690372126E-3,2.202688754E-1
1.469625629E1,-1.306273788E-2,7.414107677E-3,2.809605300E-1
1.470630529E1,-1.035004295E-2,1.322326064E-2,3.135203421E-1
1.471635529E1,-1.003030408E-2,1.858991571E-3,3.649919331E-1
1.472640529E1,-8.906716481E-3,-8.945452049E-3,3.811045885E-1
1.473645804E1,-2.874221280E-2,2.177537233E-2,3.584024906E-1
1.474650804E1,-4.313834943E-3,-3.799229395E-3,2.062039077E-1
1.475655804E1,-1.221585553E-2,-3.032539226E-2,1.618718207E-1
1.476660704E1,-6.455970928E-3,-5.798479076E-3,2.626706064E-1
1.477665704E1,2.339715138E-4,4.077839199E-3,4.771552086E-1
1.478670704E1,4.351751413E-3,6.687204354E-3,6.556562781E-1
1.479675604E1,-2.139481716E-3,7.627056912E-4,7.277886868E-1
1.480680604E1,-4.640456289E-3,3.967820201E-3,8.001161218E-1
1.481685604E1,-4.252655432E-3,-3.434675746E-4,9.039517641E-1
1.482690504E1,-1.067726500E-2,3.525040112E-3,9.853337407E-1
1.483695504E1,-1.164761186E-2,-8.709343150E-3,1.055585742E0
1.484700504E1,-1.595048234E-2,-9.547438473E-3,1.105458498E0
1.485705404E1,-1.427816879E-2,-3.263612278E-3,1.015007496E0
1.486710404E1,-1.924656332E-2,-2.271826938E-2,8.556530476E-1
1.487715404E1,-2.792005800E-2,-3.378566727E-2,7.932606936E-1
1.488720404E1,-1.687566377E-2,-1.012933999E-2,6.289063692E-1
1.489725304E1,-1.727908850E-3,2.251109108E-2,6.331252456E-1
1.490730304E1,-3.589413315E-2,-2.288169041E-2,8.581083417E-1
1.491735304E1,-2.942657098E-2,-3.572167829E-2,1.074245572E0
1.492740204E1,-2.955919690E-2,1.307446277E-3,1.145680547E0
1.493745204E1,-2.868377045E-2,-1.233764738E-2,1.090308428E0
1.494750204E1,-3.668364137E-2,5.961617082E-2,9.679374099E-1
1.495755104E1,-3.116272390E-2,5.786222592E-2,9.306105971E-1
1.496760104E1,-3.200747818E-2,7.014153153E-2,7.716667056E-1
1.497765104E1,6.605964154E-3,2.218343876E-2,6.792594194E-1
1.498770004E1,1.223449130E-3,1.100748312E-2,6.373796463E-1
1.499775004E1,-2.579451166E-2,-6.923227757E-2,8.273981810E-1
1.500780004E1,-5.679823458E-2,-1.230465099E-1,8.877968192E-1
1.501784904E1,-3.177691996E-2,-2.223327905E-1,9.959427714E-1
1.502789904E1,-2.135405783E-3,-1.476244628E-1,9.830573201E-1
1.503794904E1,-4.753419198E-4,-1.442803349E-2,8.598942161E-1
1.504799804E1,2.349097654E-2,5.047107115E-2,6.807044744E-1
1.505804804E1,1.841312274E-2,3.144906461E-2,5.934485793E-1
1.506809804E1,-4.620309919E-4,1.631006040E-2,6.338194609E-1
1.507814704E1,1.179802418E-2,3.071992192E-3,6.971339583E-1
1.508819704E1,-2.348353527E-2,4.248544574E-2,8.376785517E-1
1.509824704E1,-3.058953676E-3,5.950336810E-3,1.126914263E0
1.510829604E1,-3.702107118E-3,-1.201614551E-2,1.180085897E0
1.511834604E1,1.771818846E-2,3.622017335E-3,1.056722045E0
1.512839604E1,-6.238542963E-3,-2.371746115E-2,9.378778934E-1
1.513844604E1,1.365562528E-2,-1.134751271E-2,9.287767410E-1
1.514849504E1,2.755306661E-3,-2.675576508E-2,8.627945185E-1
1.515854504E1,8.198872209E-3,4.257384688E-2,7.077681422E-1
1.516859504E1,-9.030448273E-3,3.780111903E-3,5.520376563E-1
1.517864404E1,2.179872245E-2,1.425730623E-2,3.529925346E-1
1.518869404E1,9.099705145E-3,-1.526862755E-2,1.710349917E-1
1.519874404E1,1.511726994E-2,-2.036009915E-3,-1.118008047E-1
1.520879304E1,1.025593560E-2,-8.381256834E-3,-3.185318708E-1
1.521884304E1,2.624993213E-2,-2.380755916E-2,-4.914856851E-1
1.522889304E1,1.994117163E-2,-4.535859916E-3,-6.366932392E-1
1.523894204E1,1.120090298E-2,-8.541103452E-4,-7.718008161E-1
1.524899204E1,1.202861406E-2,-6.895224564E-3,-8.322641253E-1
1.525904204E1,1.403264049E-2,-7.711863145E-3,-8.867053986E-1
1.526909104E1,1.683615148E-2,-8.989647031E-4,-8.759287000E-1
1.527914104E1,6.036977284E-4,-3.427649383E-3,-7.969591022E-1
1.528919104E1,-1.071580127E-2,-8.731335402E-3,-7.104143500E-1
1.529924004E1,-1.070732437E-2,-4.431001842E-3,-6.737596989E-1
1.530929004E1,-1.257926039E-2,-6.800682284E-3,-6.954604983E-1
1.531934004E1,-1.073182840E-2,-7.692687213E-4,-7.232869267E-1
1.532938904E1,-7.121380884E-3,9.290555492E-3,-7.168236971E-1
1.533943904E1,-1.676548645E-2,1.121122763E-2,-6.631724834E-1
1.534948904E1,-1.538410410E-2,9.286561050E-3,-5.772314668E-1
1.535953904E1,-2.760238014E-2,6.850485224E-3,-3.348596096E-1
1.536958804E1,-2.911478840E-2,9.195132181E-3,-2.024152875E-1
1.537963804E1,-3.765771911E-2,8.683734573E-3,-1.310112178E-1
1.538968804E1,-3.453223035E-2,-1.028547063E-3,-3.202765062E-2
1.539973704E1,-3.875250369E-2,-7.603517268E-3,5.380875990E-2
1.540978704E1,-3.117499352E-1,-1.744758636E-1,-4.152009729E-3
1.541983704E1,-8.037207276E-2,7.085548341E-2,1.969823837E-1
1.542988604E1,-2.023043670E-2,1.594322920E-2,1.580834575E-2
1.543993604E1,3.867392428E-3,-1.084426641E-1,2.254458964E-1
1.544998604E1,2.124086954E-3,-5.333413929E-2,3.068265319E-1
1.546003504E1,2.256230451E-3,-1.309561264E-2,3.230449855E-1
1.547008504E1,-7.025418803E-3,-3.715426661E-3,3.357868791E-1
1.548013504E1,-8.002163842E-3,-1.788754016E-3,3.957477808E-1
1.549018404E1,-1.571867242E-2,2.275496256E-3,3.961043656E-1
1.550023404E1,-1.679411903E-2,-7.536560297E-4,5.060073733E-1
1.551028404E1,-1.172639057E-2,1.845056424E-3,4.803603888E-1
1.552033304E1,-1.416508760E-2,-2.550559584E-3,3.011865616E-1
1.553038304E1,-1.082654856E-2,8.461344987E-3,1.485661268E-1
1.554043304E1,-9.708486497E-3,2.861700254E-3,-6.280936301E-2
1.555048204E1,-8.460795507E-3,-5.057741422E-3,-1.523720026E-1
1.556053204E1,-1.497613266E-2,-1.038195007E-2,-1.617934406E-1
1.557058204E1,-1.345200650E-2,-7.727843709E-3,-1.062590703E-1
1.558063104E1,-8.081782609E-3,-7.118581329E-3,-1.190473810E-1
1.559068104E1,-5.386130419E-3,-1.292453893E-2,-1.054239795E-1
1.560073104E1,6.680237129E-4,-7.704965770E-3,-6.997172534E-2
1.561078004E1,-4.573077429E-3,-1.201209705E-2,-2.264176123E-2
1.562083004E1,-4.762385041E-3,-5.548955407E-3,-7.935036719E-2
1.563088004E1,-1.280699577E-2,-3.736674320E-3,-8.044039458E-2
1.564092904E1,-9.954033419E-3,7.671522908E-3,-1.194996685E-1
1.565097904E1,-9.558287449E-3,6.679417565E-4,-5.145404488E-2
1.566102904E1,-1.246398501E-2,4.564323463E-3,7.853338867E-2
1.567107904E1,-1.494818181E-2,5.785116926E-3,1.841951013E-1
1.568112804E1,-7.234868128E-3,3.054311266E-3,2.246621102E-1
1.569117804E1,-6.443376653E-3,4.277501255E-3,3.400257230E-1
1.570122804E1,-1.107396185E-2,9.750009514E-3,4.044035971E-1
1.571127704E1,-1.842987910E-2,7.964625955E-3,3.434856534E-1
1.572132704E1,-1.339544542E-2,2.435720293E-3,3.691589236E-1
1.573137704E1,-8.040360175E-3,3.414964536E-3,3.874686956E-1
1.574142525E1,-6.519272458E-3,8.454211988E-3,3.311319649E-1
1.575147525E1,-9.641296230E-3,6.992136128E-3,2.595158517E-1
1.576152525E1,-9.990509599E-3,8.013163693E-3,2.380488813E-1
1.577157425E1,-4.405329004E-3,4.959849641E-3,1.575313956E-1
1.578162425E1,-2.965935273E-3,-4.253803287E-3,1.054797024E-1
1.579167425E1,-4.764124751E-4,6.690989714E-3,5.167958885E-2
1.580172325E1,8.104257286E-4,-4.557170905E-4,-7.822223939E-3
1.581177325E1,-7.089073770E-4,-2.160323784E-4,-8.211562783E-2
1.582182325E1,-2.883298555E-3,6.364626344E-3,-1.224262714E-1
1.583187225E1,2.115610987E-4,5.783524364E-3,-1.429536492E-1
1.584192225E1,-1.520562917E-3,5.187281407E-3,-1.141835302E-1
1.585197225E1,-6.076166406E-3,-2.479160205E-3,-1.119699106E-1
1.586202125E1,-2.219528425E-3,-6.429861765E-3,-1.123919263E-1
1.587207125E1,-2.458593808E-4,-2.471871674E-3,-1.305762529E-1
1.588212125E1,-1.523092855E-3,-1.721744891E-3,-1.308145821E-1
1.589217125E1,-6.767548621E-5,-1.873811707E-3,-7.119226456E-2
1.590222025E1,-9.874189273E-4,3.170035779E-4,-4.574034363E-2
1.591227025E1,-1.978913788E-3,1.726602204E-4,-2.196231112E-2
1.592232025E1,-1.433933619E-3,-3.767038696E-3,-3.939449787E-2
1.593236925E1,-3.020112170E-3,2.462095581E-3,1.685561845E-3
1.594241925E1,-1.612058375E-3,1.190793701E-4,5.899874121E-2
1.595246925E1,-2.242428251E-3,-3.003743943E-3,3.273331374E-2
1.596251825E1,-3.798288293E-3,-1.414819155E-3,-7.114642859E-2
1.597256825E1,7.171538658E-3,-1.188477129E-2,-1.000627652E-1
1.598261825E1,9.410534985E-3,4.691151436E-3,-2.345892638E-1
1.599266725E1,8.904800750E-3,-1.414145343E-3,-4.089835659E-2
1.600271725E1,1.705248840E-3,2.390517155E-3,-8.612511680E-3
1.601276725E1,1.711107790E-3,-3.043130506E-3,-3.180728527E-3
1.602281625E1,3.045783378E-4,-7.682417519E-3,-2.767775906E-3
1.603286625E1,1.269441564E-3,-1.217570342E-2,-1.723550493E-3
1.604291625E1,-1.509907655E-3,-1.973389834E-2,-9.069235064E-3
1.605296525E1,-4.358690698E-3,-2.267296240E-2,-1.427731290E-2
1.606301525E1,-3.896591486E-3,-1.313976385E-2,-2.065162919E-2
1.607306525E1,-3.443587804E-3,-1.907115616E-2,-1.788966544E-2
1.608311425E1,-6.012132857E-3,-1.795020141E-2,-9.737979621E-3
1.609316425E1,-5.436623935E-3,-1.007017493E-2,-1.465935260E-3
1.610321425E1,-4.008792341E-3,-1.537004486E-3,2.987475879E-2
1.611326325E1,-3.419434652E-3,6.025574170E-3,8.612817526E-2
1.612331325E1,-1.532013994E-3,1.736177132E-2,1.297373921E-1
1.613336325E1,-4.288651980E-3,-7.853304036E-3,2.421893626E-1
1.614341325E1,-2.324570436E-3,4.554096609E-3,2.435949892E-1
1.615346225E1,4.630008712E-3,1.669544727E-2,9.753391147E-2
1.616351225E1,7.352674846E-3,8.722420782E-3,-1.036205366E-1
1.617356225E1,5.988869350E-3,-6.618451793E-3,-3.676266074E-1
1.618361125E1,1.653811894E-3,-1.430197991E-2,-3.839180470E-1
1.619366125E1,6.917283870E-3,-2.168506198E-2,-3.325387537E-1
1.620371125E1,4.175140522E-3,-2.646480501E-2,-3.858351409E-1
1.621376025E1,7.601297460E-3,-2.514068037E-2,-4.452124536E-1
1.622381025E1,7.650110405E-3,-2.602550946E-2,-3.745873868E-1
1.623386025E1,7.785665337E-3,-1.855241321E-2,-3.083652258E-1
1.624390925E1,6.227035541E-3,-1.054114942E-2,-3.295861185E-1
1.625395925E1,1.600059215E-3,-4.561020993E-3,-3.614929318E-1
1.626400925E1,4.164829850E-3,5.138423294E-4,-3.579715490E-1
1.627405825E1,4.031404853E-3,-3.197006881E-3,-3.606685102E-1
1.628410825E1,8.336446248E-3,4.005883820E-3,-2.967288792E-1
1.629415825E1,1.757905819E-3,-8.948797360E-3,-1.270362586E-1
1.630420725E1,4.548365716E-3,-9.227018803E-3,1.967956312E-2
1.631425725E1,7.664264645E-3,-6.680935621E-5,5.963763222E-2
1.632430725E1,6.680717692E-3,5.673719570E-4,7.140751928E-2
1.633435625E1,4.734746180E-3,-1.208131202E-2,9.466703981E-2
1.634440625E1,6.533140317E-3,-1.348540187E-2,7.930877805E-2
1.635445625E1,9.379792958E-3,-8.417773061E-4,1.665387601E-1
1.636450525E1,1.272852905E-2,9.893983603E-3,1.654215753E-1
1.637455525E1,1.351549290E-2,-6.943428889E-5,2.009145916E-1
1.638460525E1,6.069219206E-3,-6.642028224E-3,2.365619093E-1
1.639465525E1,4.876389634E-3,-1.453670301E-2,3.253045678E-1
1.640470425E1,1.008933876E-2,-1.300186291E-2,3.738878369E-1
1.641475425E1,6.384615786E-3,-1.210490987E-2,2.970590889E-1
1.642480425E1,9.618261829E-3,-1.876677014E-2,2.493188232E-1
1.643485325E1,6.617145613E-3,8.456062526E-3,1.931559592E-1
1.644490325E1,1.306736469E-2,6.877521984E-3,5.766566843E-3
1.645495325E1,1.564344019E-2,1.172447577E-2,-7.262490690E-2
1.646500225E1,2.237700857E-2,1.842280617E-3,2.715311712E-3
1.647505225E1,2.015326917E-2,-1.561713591E-2,4.916962981E-2
1.648510225E1,2.067418583E-2,-1.446828805E-2,1.098769307E-1
1.649515125E1,7.405785378E-3,-8.616790175E-3,2.010819316E-1
1.650520125E1,1.413658075E-2,-2.524151001E-3,2.761131525E-1
1.651525125E1,9.627049789E-3,1.728816889E-2,2.009094805E-1
1.652530025E1,-1.349386759E-2,7.551907748E-2,-8.117404580E-2
1.653535025E1,6.932577118E-3,-1.036812738E-2,-1.397510767E-1
1.654540025E1,5.007323623E-1,-6.308084726E-1,3.149608523E-2
1.655544925E1,-2.217470407E-1,-1.447192580E-1,1.218174621E-1
1.656549925E1,2.799764834E-2,-1.003097370E-1,1.498426646E-1
1.657554925E1,7.230092585E-2,-5.258854851E-2,2.393078208E-1
1.658559825E1,4.775415733E-2,-6.044759229E-2,2.843722105E-1
1.659564825E1,3.343087807E-2,-1.249118149E-1,3.485453427E-1
1.660569825E1,8.551093936E-2,1.051668823E-1,2.379590422E-1
1.661574825E1,3.741105273E-2,1.779084504E-1,1.329021305E-1
1.662579725E1,3.115067817E-2,-3.115157597E-4,1.554751992E-1
1.663584725E1,6.965546310E-2,1.235739440E-1,1.839380115E-1
1.664589725E1,5.523600429E-2,1.592859477E-1,2.681536078E-1
1.665594625E1,5.100184679E-2,1.124375127E-2,3.495278358E-1
1.666599625E1,-3.211172763E-3,-6.557368208E-3,3.816325366E-1
1.667604625E1,-1.885003448E-1,-1.741800457E-2,3.744052649E-1
1.668609525E1,-2.989201248E-2,-5.069306493E-2,4.567023218E-1
1.669614525E1,-1.011591125E-2,-1.147610024E-1,3.512755036E-1
1.670619525E1,-8.385353722E-3,-1.706054434E-2,2.225723267E-1
1.671624425E1,-3.032420762E-2,-4.294460639E-2,1.762895137E-1
1.672629425E1,-3.282289952E-2,-6.978882849E-2,1.141179278E-1
1.673634062E1,-2.786915563E-2,-1.899942383E-2,1.991845667E-2
1.674638962E1,-6.652995944E-2,-1.268532574E-1,-1.530634910E-1
1.675643962E1,-3.961632028E-2,-3.516815901E-1,-4.814131558E-1
1.676648962E1,-5.373305082E-2,-3.086318374E-1,-5.369136333E-1
1.677653862E1,5.160428956E-2,-3.162153810E-2,-5.525413156E-1
1.678658862E1,-1.502377819E-2,3.748296499E-1,-2.487286776E-1
1.679663862E1,-2.414004505E-2,7.435238361E-2,-2.300633118E-2
1.680668862E1,-4.980972409E-2,8.429130167E-2,-9.978366643E-2
1.681673762E1,-3.691709414E-2,1.039307788E-1,-8.194661140E-2
1.682678762E1,-3.373081237E-2,1.034291759E-1,-2.901107259E-2
1.683683762E1,-1.312227845E0,1.585660815E0,1.678015888E-1
1.684688662E1,4.255754650E-1,-5.994536877E-1,-3.645080924E-1
1.685693662E1,-4.876494780E-2,5.650214553E-1,-3.162789345E-2
1.686698662E1,-2.813502215E-4,-9.754465520E-2,3.700796366E-1
1.687703562E1,-2.212859318E-2,-2.329040319E-2,4.429429173E-1
1.688708562E1,-9.649237618E-3,2.824468305E-3,2.793595493E-1
1.689713562E1,-1.188389584E-2,3.535338119E-2,3.436479867E-1
1.690718462E1,-1.962153614E-2,1.666641980E-2,4.078430533E-1
1.691723462E1,-1.394660585E-2,3.061792254E-2,3.805190325E-1
1.692728462E1,-1.936195232E-2,2.315225452E-2,2.929489315E-1
1.693733362E1,-1.885168999E-2,1.200958900E-2,2.251136899E-1
1.694738362E1,-1.768925972E-2,6.471741013E-3,1.665664166E-1
1.695743362E1,-1.738033257E-2,-1.577177830E-2,1.768813729E-1
1.696748262E1,-1.140503399E-2,-7.453086320E-3,1.705476344E-1
1.697753262E1,-6.410541944E-3,-2.128368057E-2,8.339329064E-2
1.698758262E1,-6.851716433E-3,1.383982040E-2,6.146784499E-2
1.699763162E1,-9.379588999E-3,-1.079894602E-2,1.476221681E-1
1.700768162E1,-1.329412777E-2,-1.720754430E-2,2.373691797E-1
1.701773162E1,-1.026904304E-2,-1.589407399E-2,2.721897364E-1
1.702778162E1,-8.708395064E-3,-1.243809424E-2,2.926595509E-1
1.703783062E1,-1.436175406E-2,-3.634484019E-3,3.438920975E-1
1.704788062E1,-7.707542740E-3,-1.090286300E-2,3.043345213E-1
1.705793062E1,-1.168524008E-2,-2.401014231E-2,2.611111403E-1
1.706797962E1,-1.553342957E-2,-8.802784607E-3,3.004648387E-1
1.707802963E1,-1.464766171E-2,2.103820257E-2,2.567511797E-1
1.708807962E1,-8.315106854E-3,7.652522624E-2,1.766293347E-1
1.709812862E1,-9.991368279E-4,6.120219082E-2,1.752519459E-1
1.710817862E1,-4.220702685E-3,1.309674466E-3,1.668805629E-1
1.711822862E1,-7.359237410E-3,2.393048489E-3,2.275407165E-1
1.712827762E1,-8.237814531E-3,-6.591694895E-3,2.682538033E-1
1.713832762E1,-4.819381051E-3,-7.489446085E-3,2.158161551E-1
1.714837762E1,-4.759493750E-3,-5.099121947E-3,8.693649620E-2
1.715842662E1,5.729538389E-4,1.076799165E-2,7.384999096E-2
1.716847662E1,-2.234935760E-3,1.423645392E-2,7.822643965E-2
1.717852662E1,-1.093771309E-3,-4.334082454E-2,5.600688234E-2
1.718857562E1,-1.982012764E-3,-2.638568170E-2,7.928141952E-2
1.719862562E1,-7.169051562E-3,-4.296226054E-2,1.696784347E-1
1.720867562E1,-9.036073461E-3,-6.802015007E-2,2.864919901E-1
1.721872462E1,-6.286625750E-3,-6.330422312E-2,3.563887775E-1
1.722877462E1,-3.438519547E-3,-1.112024635E-1,3.688131571E-1
1.723882462E1,-2.702688100E-3,-2.450689077E-1,3.670765162E-1
1.724887462E1,1.980734523E-3,-4.632598758E-1,3.930817544E-1
1.725892362E1,-7.607444189E-3,-6.637910604E-1,3.434428275E-1
1.726897362E1,-1.704702973E-1,-5.416684151E-1,3.010934889E-1
1.727902362E1,-4.898807704E-1,-2.323071361E-1,2.635796666E-1
1.728907262E1,1.020244323E-3,-7.437717319E-1,-2.436239123E-1
1.729912262E1,2.050503492E-1,-2.273283452E-1,-1.604608446E-1
1.730917262E1,-5.444601923E-2,6.916829944E-1,-6.901083887E-2
1.731922162E1,-6.678958535E-1,8.468861580E-1,-1.708296090E-1
1.732927162E1,-1.256642342E0,5.118170977E-1,-3.396885693E-1
1.733932162E1,-1.096604109E0,9.638676643E-1,-3.290369809E-1
1.734937062E1,-7.939600945E-1,6.540642977E-1,-2.388767302E-1
1.735942062E1,-5.303817391E-1,2.060303837E-1,1.048374996E-1
1.736947062E1,-1.742857136E-2,-1.764732748E-1,3.142129481E-1
1.737951962E1,3.273045719E-1,-2.603721619E-1,3.005213737E-1
1.738956962E1,3.951186240E-1,-1.471435130E-1,1.837090701E-1
1.739961962E1,3.801130354E-1,1.022175848E-1,1.549655646E-1
1.740966862E1,3.379516304E-1,3.071797192E-1,1.799483299E-1
1.741971862E1,3.870246410E-1,5.068973899E-1,2.513780296E-1
1.742976862E1,4.567202032E-1,6.483236551E-1,1.977172494E-1
1.743981862E1,6.505692601E-1,6.365490556E-1,1.164032146E-1
1.744986762E1,9.055042267E-1,6.437857151E-1,2.034488320E-2
1.745991762E1,1.106393456E0,6.286006570E-1,-5.399299785E-2
1.746996762E1,1.196706057E0,5.665797591E-1,-8.838015050E-2
1.748001662E1,9.535441995E-1,5.756851435E-1,-4.763218760E-2
1.749006662E1,5.790415406E-1,5.603428483E-1,2.717722207E-2
1.750011662E1,3.701753914E-1,3.825249076E-1,3.651240095E-2
1.751016562E1,2.918584347E-1,3.365166485E-1,-3.565199301E-2
1.752021563E1,3.408382535E-1,4.896851480E-1,-9.141556919E-3
1.753026562E1,4.426854551E-1,4.137235284E-1,1.993793994E-2
1.754031462E1,5.304709673E-1,2.436370105E-1,5.095337704E-2
1.755036462E1,5.770986080E-1,5.964488536E-2,1.651878655E-1
1.756041462E1,5.263313055E-1,-2.058981061E-1,3.150412738E-1
1.757046362E1,4.556478262E-1,-2.669710517E-1,5.423388481E-1
1.758051362E1,1.690333784E-1,-4.225401282E-1,5.995001197E-1
1.759056362E1,-2.127429694E-1,-6.038133502E-1,1.861660630E-1
1.760061262E1,-3.543911874E-1,-3.485314846E-1,-2.187561244E-1
1.761066262E1,-2.138725817E-1,6.283669919E-2,-4.289209843E-1
1.762071262E1,1.652653888E-2,1.701213419E-1,-5.660876036E-1
1.763076162E1,1.064016074E-1,5.658207089E-2,-6.543937325E-1
1.764081162E1,2.571501397E-2,1.023152098E-1,-6.594049931E-1
1.765086162E1,-1.624147892E-1,3.158042133E-1,-6.178213954E-1
1.766091162E1,-3.586996198E-1,2.778019607E-1,-6.018797159E-1
1.767096062E1,-4.785552025E-1,-6.939368695E-2,-6.396373510E-1
1.768101062E1,-5.830067396E-1,-2.178494781E-1,-8.136751652E-1
1.769106062E1,-6.848925352E-1,-5.843449384E-2,-1.018986344E0
1.770110962E1,-7.217024565E-1,2.339978963E-1,-1.198773623E0
1.771115962E1,-7.346804142E-1,4.081802666E-1,-1.313575149E0
1.772120962E1,-7.798079848E-1,2.552035153E-1,-1.366311789E0
1.773125862E1,-9.690061808E-1,1.212435588E-1,-1.398795009E0
1.774130987E1,-1.193345070E0,8.875139803E-2,-1.443449497E0
1.775135987E1,-1.354476571E0,-6.753984094E-2,-1.506243348E0
1.776140887E1,-1.328467011E0,-3.063039482E-1,-1.514572382E0
1.777145887E1,-1.202668786E0,-4.172583818E-1,-1.463716030E0
1.778150887E1,-1.182949901E0,-2.372199148E-1,-1.424301505E0
1.779155787E1,-1.291568756E0,-1.434443593E-1,-1.459913254E0
1.780160787E1,-1.387099266E0,-7.660114765E-2,-1.542636037E0
1.781165787E1,-1.387409449E0,-1.322112978E-1,-1.659705877E0
1.782170687E1,-1.318438649E0,-4.296509624E-1,-1.748062372E0
1.783175687E1,-1.314716935E0,-5.545814037E-1,-1.778145909E0
1.784180687E1,-1.311115026E0,-4.943598807E-1,-1.702735662E0
1.785185688E1,-1.395279050E0,-4.490339160E-1,-1.631342173E0
1.786190587E1,-1.517969370E0,-3.257277012E-1,-1.647110939E0
1.787195587E1,-1.581529856E0,-3.080712557E-1,-1.714227796E0
1.788200587E1,-1.571896911E0,-4.906168282E-1,-1.810700774E0
1.789205487E1,-1.518876433E0,-5.678151250E-1,-1.895528913E0
1.790210487E1,-1.393222094E0,-6.524226665E-1,-1.866082311E0
1.791215487E1,-1.323857903E0,-7.343288660E-1,-1.762947321E0
1.792220387E1,-1.303425670E0,-6.269360781E-1,-1.658069611E0
1.793225387E1,-1.315827370E0,-4.176897705E-1,-1.578132629E0
1.794230387E1,-1.399012566E0,-3.565454483E-1,-1.521354198E0
1.795235287E1,-1.446105957E0,-3.745881021E-1,-1.450162888E0
1.796240287E1,-1.494738698E0,-4.839539826E-1,-1.381968737E0
1.797245287E1,-1.474195600E0,-5.724574924E-1,-1.295254588E0
1.798250187E1,-1.342350483E0,-4.144268632E-1,-1.185791731E0
1.799255187E1,-1.146488547E0,-3.856353164E-1,-1.047980189E0
1.800260187E1,-9.836474657E-1,-3.671878576E-1,-9.558421969E-1
1.801265087E1,-9.208989143E-1,-2.052500844E-1,-9.244958162E-1
1.802270087E1,-9.499264956E-1,-1.242942512E-1,-8.553460240E-1
1.803275087E1,-9.430214763E-1,-1.660857052E-1,-6.861133575E-1
1.804280087E1,-7.273259759E-1,-1.193035543E-1,-3.616628349E-1
1.805284987E1,-4.895486236E-1,-5.770158023E-2,-5.397546664E-2
1.806289987E1,-3.113751709E-1,-1.680067778E-1,1.792013347E-1
1.807294987E1,-1.782686263E-1,-1.019141078E-1,3.313705027E-1
1.808299887E1,-1.749572344E-2,-1.661466062E-2,4.774435759E-1
1.809304887E1,1.761389077E-1,-1.151165366E-2,5.938781500E-1
1.810309887E1,3.268147111E-1,1.080118120E-1,6.571492553E-1
1.811314787E1,4.260974824E-1,1.430057287E-1,7.029300332E-1
1.812319787E1,5.247238874E-1,1.355299801E-1,7.365617752E-1
1.813324787E1,6.573151946E-1,2.060590088E-1,8.183872104E-1
1.814329688E1,8.047999740E-1,1.788606793E-1,9.590710402E-1
1.815334687E1,8.751761913E-1,2.086662799E-1,1.088863134E0
1.816339687E1,1.036771894E0,2.083006203E-1,1.248705268E0
1.817344587E1,1.240766048E0,1.254094392E-1,1.400490761E0
1.818349587E1,1.408517838E0,1.272992194E-1,1.474719167E0
1.819354587E1,1.533564925E0,3.738813698E-1,1.490905523E0
1.820359487E1,1.632096291E0,4.940810204E-1,1.534389257E0
1.821364487E1,1.660881162E0,3.813930154E-1,1.633325458E0
1.822369487E1,1.651361108E0,2.449728549E-1,1.767910957E0
1.823374487E1,1.599136353E0,2.014824748E-1,1.947873592E0
1.824379387E1,1.605816364E0,1.800714582E-1,2.176132679E0
1.825384387E1,1.673535109E0,-4.642350227E-2,2.393731356E0
1.826389387E1,1.736058950E0,-2.657777071E-1,2.534587860E0
1.827394287E1,1.733097315E0,-2.341366410E-1,2.555970669E0
1.828399287E1,1.715899944E0,-1.727395952E-1,2.489926100E0
1.829404288E1,1.665413499E0,-3.209009469E-1,2.352121353E0
1.830409187E1,1.571803331E0,-5.665203333E-1,2.188588619E0
1.831414187E1,1.547503471E0,-6.069000959E-1,2.051849604E0
1.832419187E1,1.648614883E0,-2.002532035E-1,2.004543543E0
1.833424087E1,1.864009619E0,1.455195993E-1,2.015781164E0
1.834429087E1,2.004242420E0,2.094642222E-1,1.988286734E0
1.835434087E1,1.966677427E0,8.630850166E-2,1.919633508E0
1.836438987E1,1.716405034E0,-7.934971154E-2,1.831791520E0
1.837443987E1,1.320206404E0,-2.601851821E-1,1.764281034E0
1.838448987E1,9.610597491E-1,-5.888192654E-1,1.692964435E0
1.839453987E1,6.329259276E-1,-8.075855970E-1,1.604477406E0
1.840458887E1,5.897773504E-1,-7.373257875E-1,1.566203833E0
1.841463887E1,8.800433278E-1,-1.970717311E-1,1.535354495E0
1.842468887E1,1.342126012E0,1.825056672E-1,1.480059862E0
1.843473787E1,1.594578624E0,2.522471547E-1,1.283823490E0
1.844478787E1,1.582972765E0,2.770973742E-1,1.067303419E0
1.845483787E1,1.393112659E0,2.870513201E-1,9.761067629E-1
1.846488687E1,1.121314406E0,4.852379672E-3,1.000836015E0
1.847493687E1,7.978859544E-1,-4.097709656E-1,1.056045771E0
1.848498687E1,5.749327540E-1,-5.853033662E-1,1.135949612E0
1.849503587E1,7.023409605E-1,-5.866485834E-1,1.195628047E0
1.850508587E1,9.052245617E-1,-3.996232748E-1,1.100245118E0
1.851513587E1,1.044001222E0,-1.662552506E-1,8.476117849E-1
1.852518487E1,1.016496658E0,8.193324506E-2,5.048970580E-1
1.853523487E1,7.922367454E-1,2.716673911E-1,1.774000525E-1
1.854528487E1,3.949424028E-1,3.171035945E-1,-6.588104367E-2
1.855533387E1,-6.673064083E-2,1.598561257E-1,-2.322133482E-1
1.856538387E1,-3.211618364E-1,-1.387225837E-1,-3.337045312E-1
1.857543387E1,-1.748802513E-1,-3.388614953E-1,-3.103370965E-1
1.858548387E1,1.521215737E-1,-1.605274379E-1,-2.674095929E-1
1.859553287E1,4.940713346E-1,2.066223919E-1,-2.814516127E-1
1.860558287E1,5.652443767E-1,4.183258712E-1,-3.025766015E-1
1.861563287E1,3.293269575E-1,4.512990415E-1,-4.026165307E-1
1.862568187E1,-8.983699232E-2,4.324718118E-1,-4.964615405E-1
1.863573187E1,-1.171092093E-1,3.846327662E-1,-4.589495659E-1
1.864578187E1,1.645016968E-1,3.747345805E-1,-2.918593884E-1
1.865583087E1,3.251821101E-1,3.194007277E-1,-2.699725032E-1
1.866588087E1,2.870664001E-1,1.002255082E-1,-2.306005806E-1
1.867593087E1,1.949448735E-1,-1.131857410E-1,-1.646441072E-1
1.868597987E1,4.508106411E-2,-5.358792841E-2,-1.588781029E-1
1.869602987E1,-1.370069683E-1,1.870726049E-1,-2.706970274E-1
1.870607987E1,-2.986869514E-1,3.981355727E-1,-4.143551290E-1
1.871612887E1,-3.217113316E-1,3.679362237E-1,-4.627122283E-1
1.872617887E1,-1.552118510E-1,1.276985854E-1,-3.892782331E-1
1.873622888E1,2.684416249E-3,-2.169457078E-1,-2.794340253E-1
1.874627692E1,4.320920631E-2,-3.661740720E-1,-2.822338045E-1
1.875632692E1,-3.104831651E-2,-1.884515882E-1,-4.050155580E-1
1.876637692E1,-1.808684319E-1,1.584903896E-1,-6.365305781E-1
1.877642692E1,-3.091503084E-1,4.098477960E-1,-8.583211899E-1
1.878647592E1,-2.610770464E-1,5.360991955E-1,-9.869271517E-1
1.879652592E1,-1.108279172E-2,5.140448809E-1,-9.860905409E-1
1.880657592E1,2.716527879E-1,3.323289156E-1,-8.321976662E-1
1.881662492E1,3.931109905E-1,1.429959983E-1,-6.322418451E-1
1.882667492E1,3.787453473E-1,-1.805124804E-3,-4.636323154E-1
1.883672492E1,2.995200753E-1,-6.575790048E-2,-3.850125372E-1
1.884677392E1,1.565365642E-1,3.147224709E-2,-3.446419537E-1
1.885682392E1,-2.209812216E-2,1.441433132E-1,-3.588829935E-1
1.886687392E1,-1.888652742E-1,1.871102303E-1,-3.368552029E-1
1.887692292E1,-3.025354445E-1,1.072603278E-2,-2.966522574E-1
1.888697292E1,-3.776147366E-1,-2.505708337E-1,-2.355234027E-1
1.889702292E1,-3.972781599E-1,-5.492992401E-1,-2.059924603E-1
1.890707192E1,-1.961088330E-1,-4.539836347E-1,-1.830407977E-1
1.891712192E1,-3.200698644E-2,-1.858104318E-1,-2.229955345E-1
1.892717192E1,5.743341520E-2,1.017635614E-1,-2.666111887E-1
1.893722192E1,1.530146897E-1,1.660372913E-1,-2.376392931E-1
1.894727092E1,2.279062420E-1,4.565949365E-2,-1.243630722E-1
1.895732092E1,2.511495352E-1,-9.913582355E-2,3.031844506E-3
1.896737092E1,1.636391431E-1,-1.573456079E-1,1.891423315E-1
1.897741992E1,-1.941689104E-2,-3.124307990E-1,4.831066132E-1
1.898746992E1,-1.797309369E-1,-4.764623344E-1,6.715308428E-1
1.899751992E1,-3.111596704E-1,-4.452734590E-1,6.736904979E-1
1.900756892E1,-3.658873737E-1,-4.112440944E-1,5.858602524E-1
1.901761892E1,-3.565767705E-1,-4.090053439E-1,5.459393263E-1
1.902766892E1,-2.675249279E-1,-3.222760260E-1,4.857047200E-1
1.903771792E1,-1.132714376E-1,-2.052071840E-1,4.332761467E-1
1.904776792E1,1.593261957E-2,-7.836614549E-2,3.602671623E-1
1.905781792E1,4.179001227E-2,2.461022884E-2,2.540026903E-1
1.906786692E1,3.259917721E-2,3.867385164E-2,1.720385849E-1
1.907791692E1,4.561898857E-2,1.687018573E-2,1.449664086E-1
1.908796692E1,2.513288707E-2,-5.284098163E-2,1.210552156E-1
1.909801592E1,-3.174181283E-2,-1.250132620E-1,1.170921102E-1
1.910806592E1,-3.703644127E-2,-1.749994755E-1,1.197803095E-1
1.911811592E1,-9.866561741E-3,-2.337606698E-1,1.201476231E-1
1.912816592E1,-3.149249405E-2,-1.962463260E-1,9.140892327E-2
1.913821492E1,-1.190005466E-1,-1.476268172E-1,5.537774041E-2
1.914826492E1,-1.911104172E-1,-1.723481417E-1,2.633304102E-3
1.915831492E1,-2.343569249E-1,-1.817917526E-1,-6.289356202E-2
1.916836392E1,-2.133831978E-1,-1.692514569E-1,-1.143812612E-1
1.917841392E1,-1.979829520E-1,-1.907670200E-1,-1.114316732E-1
1.918846392E1,-1.639592052E-1,-2.171024829E-1,-6.187956408E-2
1.919851292E1,-2.009768933E-1,-2.425934970E-1,6.841629744E-3
1.920856292E1,-2.514733672E-1,-2.747919261E-1,6.740244478E-2
1.921861292E1,-2.914790511E-1,-2.803211212E-1,8.178279549E-2
1.922866192E1,-2.594087422E-1,-3.197928965E-1,1.147242337E-1
1.923871192E1,-3.717664182E-1,-1.106582657E-1,8.009762317E-2
1.924876192E1,-3.904618025E-1,-9.524708241E-2,6.064163521E-2
1.925881092E1,-4.130772352E-1,-1.340794563E-1,1.107194051E-1
1.926886092E1,-4.174432158E-1,-1.268415153E-1,9.665152431E-2
1.927891092E1,-4.365627170E-1,-1.318295896E-1,3.926955163E-3
1.928896092E1,-4.074557126E-1,-1.408606470E-1,-1.072829217E-1
1.929900992E1,-3.089965284E-1,-9.542996436E-2,-1.422808021E-1
1.930905992E1,-2.210848033E-1,-9.219022840E-2,-1.583276838E-1
1.931910992E1,-2.080664635E-1,-1.164844111E-1,-2.067889422E-1
1.932915892E1,-2.407431901E-1,-1.278904676E-1,-2.813044488E-1
1.933920892E1,-2.464618385E-1,-1.257329881E-1,-3.008144498E-1
1.934925892E1,-1.745663434E-1,-9.634874761E-2,-2.536543906E-1
1.935930792E1,-7.191159576E-2,-4.031967744E-2,-3.088062108E-1
1.936935792E1,4.259233922E-2,-6.452791393E-3,-3.449945748E-1
1.937940792E1,1.090593264E-1,2.052772045E-2,-4.091322422E-1
1.938945692E1,1.316860765E-1,-6.626403425E-3,-3.374801576E-1
1.939950692E1,1.075878963E-1,1.068182476E-2,-3.075709343E-1
1.940955692E1,3.878433257E-2,-9.478304535E-3,-3.122727573E-1
1.941960592E1,6.019759923E-3,4.511722177E-2,-3.787655532E-1
1.942965592E1,1.072757877E-4,-4.991288856E-2,-3.933160007E-1
1.943970592E1,-5.777066946E-2,2.029494643E-1,-4.267373383E-1
1.944975492E1,2.883654237E-1,-7.724225521E-2,-2.882034481E-1
1.945980492E1,4.576454461E-1,-1.249887943E-1,-1.141734198E-1
1.946985492E1,3.619575202E-1,1.250902861E-1,-1.531524956E-1
1.947990492E1,2.166239470E-1,2.156273425E-1,-1.502896398E-1
1.948995392E1,1.296922565E-1,4.304951727E-1,-2.827576399E-1
1.950000392E1,8.175842464E-2,1.465176821E0,-6.907119751E-1
1.951005392E1,-1.045139804E-1,1.116661429E0,-1.149955630E0
1.952010292E1,-6.244828552E-2,6.972976923E-1,-1.303677797E0
1.953015292E1,-2.299749553E-1,2.834667265E-1,-1.253332615E0
1.954020292E1,-4.434613883E-1,2.650876157E-2,-1.141121387E0
1.955025192E1,-5.722683668E-1,1.274984926E-1,-9.681549072E-1
1.956030192E1,-6.203922033E-1,1.459941119E-1,-9.269495606E-1
1.957035192E1,-6.537656188E-1,1.371441633E-1,-1.036749721E0
1.958040092E1,-6.955595016E-1,3.043589592E-1,-1.252564073E0
1.959045092E1,-7.714769244E-1,4.743578434E-1,-1.449913383E0
1.960050092E1,-8.296242952E-1,4.145890176E-1,-1.524334788E0
1.961054992E1,-8.356046677E-1,2.280047387E-1,-1.413372517E0
1.962059992E1,-8.355109096E-1,4.143771157E-2,-1.215734601E0
1.963064992E1,-9.332875013E-1,-4.795075580E-2,-1.092447758E0
1.964069992E1,-1.062429428E0,4.349290952E-2,-1.051191211E0
1.965074892E1,-1.199101567E0,9.706000239E-2,-1.116194963E0
1.966079892E1,-1.274369359E0,-7.462219894E-2,-1.171424508E0
1.967084892E1,-1.240994692E0,-3.006792963E-1,-1.225715518E0
1.968089792E1,-1.197066784E0,-3.414318562E-1,-1.277743578E0
1.969094792E1,-1.210963726E0,-1.956275105E-1,-1.361786842E0
1.970099792E1,-1.247515798E0,-1.122298688E-1,-1.420293331E0
1.971104692E1,-1.208178997E0,-8.672770858E-2,-1.394676089E0
1.972109692E1,-1.218234777E0,-1.871059686E-1,-1.344063997E0
1.973114692E1,-1.345116258E0,-3.815617263E-1,-1.305367231E0
1.974119625E1,-1.535817266E0,-4.009268582E-1,-1.268267989E0
1.975124625E1,-1.691155791E0,-2.100370675E-1,-1.205321789E0
1.976129625E1,-1.778153300E0,-2.101945132E-1,-1.131154776E0
1.977134525E1,-1.719513655E0,-3.429501355E-1,-1.046961308E0
1.978139525E1,-1.589544177E0,-4.379435182E-1,-9.669271111E-1
1.979144525E1,-1.379701972E0,-4.537991881E-1,-8.955339193E-1
1.980149425E1,-1.256619930E0,-4.380738735E-1,-8.841589689E-1
1.981154425E1,-1.337478638E0,-4.211625457E-1,-9.321464300E-1
1.982159425E1,-1.470462203E0,-4.359373450E-1,-9.404553175E-1
1.983164425E1,-1.513748646E0,-4.096974730E-1,-8.593178391E-1
1.984169325E1,-1.501143217E0,-3.235858381E-1,-7.465878725E-1
1.985174325E1,-1.435240865E0,-3.110716343E-1,-6.277749538E-1
1.986179325E1,-1.377128482E0,-3.811194897E-1,-5.170620680E-1
1.987184225E1,-1.331647515E0,-4.421221316E-1,-4.387366474E-1
1.988189225E1,-1.248916864E0,-3.857060373E-1,-4.011584818E-1
1.989194225E1,-1.127632499E0,-2.224766463E-1,-4.414936602E-1
1.990199125E1,-1.006483674E0,-7.819379866E-2,-5.201599002E-1
1.991204125E1,-8.854500055E-1,5.267766863E-2,-6.195954084E-1
1.992209125E1,-7.810972929E-1,2.114339471E-1,-6.623491049E-1
1.993214025E1,-7.319422364E-1,2.905237079E-1,-6.128158569E-1
1.994219025E1,-7.184588313E-1,1.537211090E-1,-4.949393570E-1
