"Time (s)","Gyroscope x (rad/s)","Gyroscope y (rad/s)","Gyroscope z (rad/s)"
2.043197600E-2,7.635815418E-4,1.221730490E-3,1.221730490E-3
2.253881500E-2,7.635815418E-4,-1.069014193E-3,-1.221730490E-3
2.464833200E-2,7.635815418E-4,-0.000000000E0,0.000000000E0
2.675454200E-2,-4.581489484E-4,1.221730490E-3,1.221730490E-3
2.886242300E-2,-1.679879380E-3,-1.069014193E-3,1.221730490E-3
3.097031300E-2,7.635815418E-4,-1.069014193E-3,0.000000000E0
3.307909900E-2,7.635815418E-4,2.443460980E-3,1.221730490E-3
3.518746600E-2,7.635815418E-4,-2.290744567E-3,1.221730490E-3
3.729636400E-2,-4.581489484E-4,-1.069014193E-3,0.000000000E0
3.940189300E-2,-4.581489484E-4,2.443460980E-3,1.221730490E-3
4.150466700E-2,-4.581489484E-4,1.527163113E-4,0.000000000E0
4.361998200E-2,7.635815418E-4,-1.069014193E-3,0.000000000E0
4.572833900E-2,7.635815418E-4,1.221730490E-3,1.221730490E-3
4.783833600E-2,7.635815418E-4,-0.000000000E0,0.000000000E0
4.994464900E-2,7.635815418E-4,1.221730490E-3,0.000000000E0
5.205329200E-2,7.635815418E-4,-0.000000000E0,0.000000000E0
5.416235000E-2,7.635815418E-4,-0.000000000E0,-1.221730490E-3
5.626988400E-2,7.635815418E-4,1.221730490E-3,-1.221730490E-3
5.837885200E-2,7.635815418E-4,-0.000000000E0,0.000000000E0
6.048597000E-2,-4.581489484E-4,1.527163113E-4,1.221730490E-3
6.259707500E-2,7.635815418E-4,1.221730490E-3,0.000000000E0
6.471547200E-2,-4.581489484E-4,1.527163113E-4,1.221730490E-3
6.682363600E-2,-1.679879380E-3,1.527163113E-4,0.000000000E0
6.893238100E-2,-4.581489484E-4,-1.069014193E-3,-1.221730490E-3
7.103845000E-2,-4.581489484E-4,1.527163113E-4,0.000000000E0
7.314567900E-2,1.985311974E-3,-1.221730490E-3,0.000000000E0
7.525384200E-2,7.635815418E-4,-0.000000000E0,0.000000000E0
7.735794900E-2,-4.581489484E-4,-1.069014193E-3,-1.221730490E-3
7.945384600E-2,7.635815418E-4,-0.000000000E0,0.000000000E0
8.157607900E-2,-1.679879380E-3,1.527163113E-4,0.000000000E0
8.368692900E-2,-4.581489484E-4,1.527163113E-4,0.000000000E0
8.579949700E-2,7.635815418E-4,-0.000000000E0,0.000000000E0
8.790515900E-2,-4.581489484E-4,1.221730490E-3,0.000000000E0
9.001129000E-2,-4.581489484E-4,1.527163113E-4,0.000000000E0
9.211842700E-2,7.635815418E-4,-0.000000000E0,1.221730490E-3
9.422644900E-2,7.635815418E-4,-0.000000000E0,-1.221730490E-3
9.633523400E-2,-4.581489484E-4,-1.069014193E-3,0.000000000E0
9.844521900E-2,-4.581489484E-4,1.527163113E-4,0.000000000E0
1.005494570E-1,-4.581489484E-4,1.527163113E-4,0.000000000E0
1.026464320E-1,7.635815418E-4,-1.069014193E-3,0.000000000E0
1.047705260E-1,-4.581489484E-4,1.221730490E-3,1.221730490E-3
1.068776740E-1,-4.581489484E-4,1.221730490E-3,0.000000000E0
1.089898360E-1,-4.581489484E-4,1.527163113E-4,0.000000000E0
1.110919080E-1,-4.581489484E-4,-1.069014193E-3,0.000000000E0
1.131944370E-1,-4.581489484E-4,-1.069014193E-3,0.000000000E0
1.153106880E-1,-4.581489484E-4,1.527163113E-4,1.221730490E-3
1.174192390E-1,7.635815418E-4,-1.069014193E-3,-1.221730490E-3
1.195272720E-1,-4.581489484E-4,-2.290744567E-3,-1.221730490E-3
1.216259040E-1,-4.581489484E-4,-1.069014193E-3,0.000000000E0
1.237347410E-1,1.985311974E-3,-0.000000000E0,0.000000000E0
1.258529650E-1,7.635815418E-4,-0.000000000E0,2.443460980E-3
1.279620150E-1,1.985311974E-3,-0.000000000E0,1.221730490E-3
1.300706780E-1,-4.581489484E-4,1.527163113E-4,-1.221730490E-3
1.321737970E-1,7.635815418E-4,-3.512475174E-3,3.665191587E-3
1.342749420E-1,7.635815418E-4,-2.290744567E-3,2.443460980E-3
1.363934720E-1,7.635815418E-4,-1.069014193E-3,2.443460980E-3
1.385024610E-1,7.635815418E-4,-1.069014193E-3,2.443460980E-3
1.406121220E-1,7.635815418E-4,1.221730490E-3,2.443460980E-3
1.427178040E-1,7.635815418E-4,-1.221730490E-3,6.108652335E-3
1.448234140E-1,7.635815418E-4,1.221730490E-3,4.886921961E-3
1.469243360E-1,-4.581489484E-4,2.443460980E-3,4.886921961E-3
1.490429690E-1,-3.054326226E-4,3.665191587E-3,7.330383174E-3
1.511506550E-1,-3.054326226E-4,3.665191587E-3,8.552113548E-3
1.532603350E-1,-1.527163084E-3,3.665191587E-3,1.099557430E-2
1.553649900E-1,-3.054326226E-4,1.221730490E-3,1.343903504E-2
1.574669690E-1,-1.527163084E-3,2.443460980E-3,1.466076635E-2
1.595841980E-1,-1.527163084E-3,1.221730490E-3,1.832595654E-2
1.616920580E-1,-2.748893574E-3,-1.069014193E-3,2.199114859E-2
1.638024300E-1,-3.970623948E-3,1.527163113E-4,2.443460934E-2
1.659086710E-1,-3.970623948E-3,1.527163113E-4,2.687807009E-2
1.680167130E-1,-1.527163084E-3,1.221730490E-3,3.176499158E-2
1.701254790E-1,-1.527163084E-3,-0.000000000E0,3.298672289E-2
1.722343350E-1,-3.970623948E-3,-3.512475174E-3,3.787364438E-2
1.743416340E-1,-3.970623948E-3,-7.177666761E-3,4.031710699E-2
1.764492190E-1,-3.970623948E-3,-8.399397135E-3,4.031710699E-2
1.785554310E-1,-1.527163084E-3,-9.621127509E-3,4.031710699E-2
1.806666780E-1,-1.527163084E-3,-8.399397135E-3,3.665191308E-2
1.827748120E-1,-3.054326226E-4,-1.084285788E-2,3.176499158E-2
1.848834730E-1,9.162978968E-4,-1.084285788E-2,3.054326214E-2
1.869913130E-1,-3.054326226E-4,-8.399397135E-3,2.809980139E-2
1.890977690E-1,-3.054326226E-4,-3.512475174E-3,2.687807009E-2
1.911976230E-1,-3.054326226E-4,-3.512475174E-3,2.443460934E-2
1.933168040E-1,2.138028387E-3,-2.443460980E-3,2.321287990E-2
1.954238600E-1,3.359758761E-3,1.221730490E-3,2.443460934E-2
1.975349330E-1,2.138028387E-3,3.665191587E-3,2.443460934E-2
1.996378280E-1,9.162978968E-4,1.221730490E-3,2.565634064E-2
2.017389030E-1,9.162978968E-4,-1.221730490E-3,2.565634064E-2
2.038577490E-1,2.138028387E-3,-5.955935922E-3,2.687807009E-2
2.059663810E-1,3.359758761E-3,-4.886921961E-3,2.687807009E-2
2.080760710E-1,3.359758761E-3,-1.221730490E-3,2.687807009E-2
2.101791590E-1,3.359758761E-3,1.221730490E-3,2.565634064E-2
2.122795630E-1,3.359758761E-3,-1.221730490E-3,2.321287990E-2
2.143985000E-1,9.162978968E-4,-3.512475174E-3,2.199114859E-2
2.165065830E-1,4.581489135E-3,-2.443460980E-3,1.710422710E-2
2.186176870E-1,4.428773187E-3,-3.665191587E-3,1.221730467E-2
2.207228110E-1,4.428773187E-3,-3.665191587E-3,4.886921961E-3
2.228307310E-1,3.207042580E-3,-2.443460980E-3,-1.221730490E-3
2.249383960E-1,1.985311974E-3,-1.221730490E-3,-4.886921961E-3
2.270482200E-1,4.428773187E-3,-0.000000000E0,-7.330383174E-3
2.291559160E-1,3.207042580E-3,-1.221730490E-3,-9.773843922E-3
2.312634510E-1,1.985311974E-3,-4.734205548E-3,-1.099557430E-2
2.333693370E-1,3.054326167E-3,-4.734205548E-3,-1.343903504E-2
2.354686090E-1,3.207042580E-3,-2.290744567E-3,-1.343903504E-2
2.375896010E-1,3.207042580E-3,-2.290744567E-3,-1.466076635E-2
2.396983050E-1,4.276056774E-3,-3.512475174E-3,-1.954768784E-2
2.418084230E-1,5.497787148E-3,-0.000000000E0,-2.321287990E-2
2.439160370E-1,4.276056774E-3,-1.069014193E-3,-2.565634064E-2
2.460314140E-1,5.497787148E-3,-2.290744567E-3,-3.176499158E-2
2.481305660E-1,6.719517522E-3,-4.734205548E-3,-3.665191308E-2
2.502385680E-1,6.566801574E-3,-1.084285788E-2,-4.276056588E-2
2.523442910E-1,9.010262787E-3,-1.450804994E-2,-4.764748737E-2
2.544552630E-1,9.010262787E-3,-1.695151068E-2,-5.253441259E-2
2.565642930E-1,8.857546374E-3,-2.046398632E-2,-5.497787148E-2
2.586718780E-1,8.857546374E-3,-1.924225502E-2,-5.742133409E-2
2.607808050E-1,7.635815535E-3,-1.802052557E-2,-5.864306539E-2
2.628876770E-1,5.192354787E-3,-1.802052557E-2,-5.742133409E-2
2.649963000E-1,5.345070735E-3,-1.328631863E-2,-5.497787148E-2
2.671045260E-1,4.123340361E-3,-1.206458826E-2,-5.238169432E-2
2.692103100E-1,4.123340361E-3,-1.084285788E-2,-4.642575979E-2
2.713110380E-1,4.276056774E-3,-4.734205548E-3,-4.031710699E-2
2.734301780E-1,3.054326167E-3,1.527163113E-4,-3.298672289E-2
2.755374570E-1,3.054326167E-3,3.665191587E-3,-2.687807009E-2
2.776458250E-1,7.635815418E-4,6.108652335E-3,-1.954768784E-2
2.797433600E-1,7.635815418E-4,8.552113548E-3,-1.588249579E-2
2.818606390E-1,-4.581489484E-4,7.330383174E-3,-1.221730467E-2
2.839688850E-1,7.635815418E-4,8.552113548E-3,-1.099557430E-2
2.860800200E-1,7.635815418E-4,7.330383174E-3,-1.221730467E-2
2.881833320E-1,-4.581489484E-4,9.773843922E-3,-1.221730467E-2
2.902803680E-1,-4.581489484E-4,1.343903504E-2,-1.466076635E-2
2.924036900E-1,7.635815418E-4,1.099557430E-2,-1.466076635E-2
2.945117320E-1,-4.581489484E-4,1.221730467E-2,-1.588249579E-2
2.966236500E-1,-4.581489484E-4,9.773843922E-3,-1.710422710E-2
2.987281740E-1,-4.581489484E-4,1.221730467E-2,-1.710422710E-2
3.008363480E-1,-1.679879380E-3,1.099557430E-2,-1.695151068E-2
3.029447470E-1,-4.581489484E-4,8.552113548E-3,-1.588249579E-2
3.050531540E-1,-1.679879380E-3,9.773843922E-3,-1.572977938E-2
3.071622650E-1,-1.679879380E-3,9.773843922E-3,-1.343903504E-2
3.092694840E-1,-4.581489484E-4,1.221730467E-2,-1.099557430E-2
3.113751770E-1,-1.679879380E-3,1.099557430E-2,-9.773843922E-3
3.134755290E-1,-1.679879380E-3,9.773843922E-3,-9.773843922E-3
3.155944960E-1,-4.123340361E-3,1.099557430E-2,-8.399397135E-3
3.177023760E-1,-2.901609987E-3,1.221730467E-2,-8.552113548E-3
3.198132060E-1,-2.901609987E-3,1.343903504E-2,-8.552113548E-3
3.219165180E-1,-4.123340361E-3,1.588249579E-2,-1.206458826E-2
3.240181510E-1,-2.901609987E-3,1.343903504E-2,-1.206458826E-2
3.261356750E-1,-2.901609987E-3,1.221730467E-2,-1.328631863E-2
3.282447340E-1,-4.123340361E-3,9.773843922E-3,-1.572977938E-2
3.303542120E-1,-5.345070735E-3,1.099557430E-2,-1.939497143E-2
3.324600870E-1,-2.901609987E-3,1.588249579E-2,-1.939497143E-2
3.345680280E-1,-4.123340361E-3,1.343903504E-2,-2.306016348E-2
3.366767110E-1,-4.123340361E-3,1.343903504E-2,-2.550362423E-2
3.387852110E-1,-2.901609987E-3,1.343903504E-2,-2.916881628E-2
3.408938750E-1,-1.679879380E-3,1.099557430E-2,-3.405573592E-2
3.430003100E-1,-3.054326167E-3,1.099557430E-2,-4.016438872E-2
3.451104780E-1,-3.054326167E-3,1.099557430E-2,-4.505131021E-2
3.472177160E-1,-3.054326167E-3,1.099557430E-2,-5.360342562E-2
3.493258310E-1,-1.832595794E-3,9.773843922E-3,-5.849034712E-2
3.514317170E-1,-1.985311974E-3,7.483099122E-3,-6.582073122E-2
3.535426180E-1,-1.985311974E-3,5.039638374E-3,-7.192938030E-2
3.556511580E-1,-2.138028387E-3,-2.290744567E-3,-8.170322329E-2
3.577608890E-1,3.054326226E-4,-3.512475174E-3,-8.536841720E-2
3.598674360E-1,3.054326226E-4,-1.069014193E-3,-9.392052889E-2
3.619755200E-1,3.054326226E-4,6.261368748E-3,-1.000291854E-1
3.640836530E-1,3.054326226E-4,6.261368748E-3,-1.049161032E-1
3.661880030E-1,3.054326226E-4,3.817907767E-3,-1.122464910E-1
3.682841130E-1,1.527163113E-4,3.817907767E-3,-1.206458881E-1
3.704085240E-1,2.596177394E-3,2.596177394E-3,-1.279762685E-1
3.725170240E-1,2.596177394E-3,1.527163113E-4,-1.328631938E-1
3.746302030E-1,1.374446787E-3,2.596177394E-3,-1.389718503E-1
3.767284800E-1,1.374446787E-3,5.039638374E-3,-1.389718503E-1
3.788221090E-1,1.374446787E-3,2.596177394E-3,-1.414152980E-1
3.809496820E-1,2.443460980E-3,1.527163113E-4,-1.438587606E-1
3.830580710E-1,3.665191587E-3,2.596177394E-3,-1.426370293E-1
3.851712490E-1,0.000000000E0,2.596177394E-3,-1.463022232E-1
3.872752130E-1,1.527163113E-4,6.261368748E-3,-1.438587606E-1
3.893835610E-1,2.443460980E-3,5.039638374E-3,-1.450804919E-1
3.914826410E-1,3.665191587E-3,2.596177394E-3,-1.463022232E-1
3.935995540E-1,2.443460980E-3,-9.162978968E-4,-1.475239545E-1
3.957079120E-1,2.443460980E-3,-3.359758761E-3,-1.487456858E-1
3.978179270E-1,1.221730490E-3,-5.803219974E-3,-1.524108797E-1
3.999216170E-1,0.000000000E0,-1.191187184E-2,-1.560760736E-1
4.020223960E-1,-2.596177394E-3,-1.786780916E-2,-1.634064466E-1
4.041407220E-1,-1.374446787E-3,-1.786780916E-2,-1.695151031E-1
4.062491710E-1,1.069014193E-3,-1.664607786E-2,-1.744020283E-1
4.083605210E-1,2.290744567E-3,-1.069014147E-2,-1.780672222E-1
4.104626830E-1,2.290744567E-3,-1.069014147E-2,-1.805106848E-1
4.125609410E-1,1.069014193E-3,-1.298088674E-2,-1.817324162E-1
4.146717900E-1,3.359758761E-3,-1.313360315E-2,-1.841758788E-1
4.167906450E-1,2.290744567E-3,-1.069014147E-2,-1.853975952E-1
4.189009360E-1,3.359758761E-3,-1.069014147E-2,-1.866193265E-1
4.210090400E-1,3.359758761E-3,-9.468411095E-3,-1.890627891E-1
4.231148540E-1,2.138028387E-3,-1.069014147E-2,-1.939497143E-1
4.252241780E-1,9.162978968E-4,-1.298088674E-2,-1.988366395E-1
4.273312840E-1,9.162978968E-4,-1.298088674E-2,-2.025018334E-1
4.294411380E-1,9.162978968E-4,-1.542434748E-2,-2.049452960E-1
4.315538200E-1,2.138028387E-3,-1.786780916E-2,-2.061670274E-1
4.336560330E-1,2.138028387E-3,-1.664607786E-2,-2.073887438E-1
4.357644210E-1,2.138028387E-3,-1.175915636E-2,-2.086104751E-1
4.378710290E-1,9.162978968E-4,-1.420261711E-2,-2.073887438E-1
4.399810860E-1,-1.527163084E-3,-1.786780916E-2,-2.086104751E-1
4.420899730E-1,-2.748893574E-3,-2.504547499E-2,-2.049452960E-1
4.441946880E-1,-3.054326226E-4,-2.504547499E-2,-2.000583708E-1
4.462952750E-1,-3.054326226E-4,-1.786780916E-2,-1.939497143E-1
4.484135200E-1,-3.054326226E-4,-1.053742506E-2,-1.915062517E-1
4.505219600E-1,1.069014193E-3,-4.581489135E-3,-1.878410578E-1
4.526327690E-1,-1.527163113E-4,-1.420261711E-2,-1.829541475E-1
4.547361110E-1,-3.817907767E-3,-2.031126991E-2,-1.756237596E-1
4.568374100E-1,-5.039638374E-3,-1.542434748E-2,-1.670716405E-1
4.589561340E-1,-9.773843922E-3,-1.908953860E-2,-1.585195363E-1
4.610634340E-1,-1.099557430E-2,-2.504547499E-2,-1.511891484E-1
4.631748830E-1,-8.552113548E-3,-2.031126991E-2,-1.389718503E-1
4.652793950E-1,-2.443460980E-3,-1.542434748E-2,-1.291979998E-1
4.673879260E-1,2.596177394E-3,-1.557706390E-2,-1.207986027E-1
4.694934970E-1,6.108652335E-3,-2.046398632E-2,-1.146899462E-1
4.715939610E-1,5.039638374E-3,-2.168571576E-2,-1.085812971E-1
4.737113830E-1,-1.069014193E-3,-2.031126991E-2,-1.012509167E-1
4.758207170E-1,-8.399397135E-3,-2.397646010E-2,-1.000291854E-1
4.779318410E-1,-1.084285788E-2,-2.748893574E-2,-9.392052889E-2
4.800378090E-1,-3.359758761E-3,-2.641992271E-2,-8.536841720E-2
4.821456490E-1,2.748893574E-3,-2.412917651E-2,-7.925976813E-2
4.842539350E-1,5.192354787E-3,-2.535090782E-2,-7.803803682E-2
4.863622210E-1,3.970623948E-3,-2.290744707E-2,-7.437284291E-2
4.884711390E-1,2.748893574E-3,-1.313360315E-2,-6.582073122E-2
4.905813690E-1,-1.985311974E-3,-3.512475174E-3,-5.726861581E-2
4.926878850E-1,-9.315694682E-3,-1.313360315E-2,-4.871650413E-2
4.947952650E-1,-9.162978269E-3,-1.802052557E-2,-4.016438872E-2
4.969027790E-1,-3.054326167E-3,-1.191187184E-2,-2.794708498E-2
4.990085230E-1,-1.832595794E-3,-3.512475174E-3,-2.306016348E-2
5.011083460E-1,-6.566801574E-3,3.817907767E-3,-1.572977938E-2
5.032281680E-1,-1.145372353E-2,2.596177394E-3,-8.399397135E-3
5.053367900E-1,-1.252273750E-2,5.039638374E-3,5.039638374E-3
5.074478640E-1,-9.926560335E-3,1.954768784E-2,1.847867295E-2
5.095518180E-1,-5.039638374E-3,2.183843218E-2,3.054326214E-2
5.116483040E-1,1.069014193E-3,9.773843922E-3,4.031710699E-2
5.137596120E-1,5.955935922E-3,3.665191587E-3,4.871650413E-2
5.158777860E-1,3.512475174E-3,9.621127509E-3,5.864306539E-2
5.179885850E-1,-2.443460980E-3,8.552113548E-3,7.086037099E-2
5.200968320E-1,-4.886921961E-3,2.443460980E-3,8.307767659E-2
5.222022080E-1,-2.443460980E-3,-1.221730490E-3,9.514226019E-2
5.243083080E-1,-1.069014193E-3,4.734205548E-3,1.122464910E-1
5.264100730E-1,-4.581489135E-3,1.084285788E-2,1.281289905E-1
5.285279530E-1,-8.246680722E-3,2.443460980E-3,1.403462887E-1
5.306364940E-1,-9.315694682E-3,-0.000000000E0,1.574505121E-1
5.327442820E-1,-1.175915636E-2,-3.665191587E-3,1.745547503E-1
5.348454880E-1,-1.527163107E-2,-7.330383174E-3,1.879937798E-1
5.369597050E-1,-1.282817032E-2,-2.443460980E-3,1.965458989E-1
5.390684600E-1,-6.719517522E-3,-2.596177394E-3,2.086104751E-1
5.411781610E-1,3.054326167E-3,-7.483099122E-3,2.196060568E-1
5.432843530E-1,7.941247895E-3,-1.725694351E-2,2.304489166E-1
5.453920280E-1,3.207042580E-3,-1.832595654E-2,2.438879460E-1
5.474965910E-1,-7.635815535E-3,-6.261368748E-3,2.513710558E-1
5.495901890E-1,-1.970040426E-2,4.734205548E-3,2.574796975E-1
5.517186180E-1,-2.336559631E-2,6.108652335E-3,2.623666227E-1
5.538291630E-1,-1.603521220E-2,4.734205548E-3,2.648100853E-1
5.559510390E-1,-3.054326226E-4,3.359758761E-3,2.658790946E-1
5.580428050E-1,1.435533352E-2,-3.054326226E-4,2.732094824E-1
5.601518960E-1,1.802052557E-2,-3.970623948E-3,2.730567753E-1
5.622561340E-1,6.872233935E-3,-1.603521220E-2,2.683225572E-1
5.643673500E-1,-8.857546374E-3,-1.588249579E-2,2.635883391E-1
5.664753720E-1,-1.985312067E-2,-1.328631863E-2,2.574796975E-1
5.685838820E-1,-1.252273750E-2,-7.330383174E-3,2.525927722E-1
5.706919550E-1,5.650503561E-3,-1.237002108E-2,2.463314086E-1
5.728002530E-1,1.404990070E-2,-2.214386500E-2,2.390010208E-1
5.749088640E-1,3.054326167E-3,-2.443460934E-2,2.292271852E-1
5.770155340E-1,-2.244929783E-2,-1.817324013E-2,2.222022265E-1
5.791155400E-1,-4.062253982E-2,1.527163113E-4,2.185370475E-1
5.812334710E-1,-3.573561832E-2,1.710422710E-2,2.160935849E-1
5.833412790E-1,-1.618792862E-2,3.512475267E-2,2.197587788E-1
5.854522000E-1,5.803219974E-3,4.581489414E-2,2.220495194E-1
5.875555520E-1,2.641992271E-2,4.673119262E-2,2.194533348E-1
5.896562610E-1,2.764165215E-2,4.550946131E-2,2.182316035E-1
5.917748420E-1,7.024950348E-3,4.214970022E-2,2.220495194E-1
5.938838210E-1,-1.618792862E-2,3.741549700E-2,2.185370475E-1
5.959938050E-1,-2.718350291E-2,3.268129006E-2,2.112066597E-1
5.981002610E-1,-2.977968007E-2,6.108652335E-3,2.038762718E-1
6.002047630E-1,-2.993239649E-2,-1.679879427E-2,1.965458989E-1
6.023053600E-1,-2.977968007E-2,-7.177666761E-3,1.989893466E-1
6.044226690E-1,-2.474004216E-2,1.343903504E-2,2.112066597E-1
6.065320240E-1,-1.985312067E-2,1.817324013E-2,2.136501223E-1
6.086433520E-1,-2.611448988E-2,-4.734205548E-3,2.136501223E-1
6.107466550E-1,-3.222314268E-2,-3.512475174E-3,2.148718536E-1
6.128432940E-1,-3.573561832E-2,-3.512475174E-3,2.185370475E-1
6.149652820E-1,-2.367102914E-2,-1.450804994E-2,2.222022265E-1
6.170732330E-1,-1.145372353E-2,-1.466076635E-2,2.257147133E-1
6.191869930E-1,4.428773187E-3,-1.374446787E-3,2.292271852E-1
6.212947910E-1,1.053742506E-2,3.359758761E-3,2.267837226E-1
6.233896100E-1,1.038470957E-2,-1.481348183E-2,2.231185287E-1
6.255067350E-1,1.878410578E-2,-2.703078650E-2,2.206750661E-1
6.276141370E-1,3.451388702E-2,-3.680463135E-2,2.205223590E-1
6.297252520E-1,3.695734590E-2,-4.291328415E-2,2.241875380E-1
6.318311580E-1,2.367102914E-2,-3.420845419E-2,2.315179259E-1
6.339391190E-1,1.634064503E-2,-2.703078650E-2,2.304489166E-1
6.360478020E-1,2.489275858E-2,-1.970040426E-2,2.280054539E-1
6.381560780E-1,3.344487399E-2,-2.474004216E-2,2.278527319E-1
6.402643040E-1,3.222314268E-2,-3.191770986E-2,2.290744632E-1
6.423701500E-1,2.733621933E-2,-3.436116874E-2,2.351831198E-1
6.444716210E-1,2.122756653E-2,-3.191770986E-2,2.412917763E-1
6.465889410E-1,1.053742506E-2,-1.237002108E-2,2.438879460E-1
6.486972370E-1,-7.635815535E-3,-3.817907767E-3,2.464841306E-1
6.508077210E-1,-3.084869497E-2,-1.221730490E-3,2.478585690E-1
6.529136580E-1,-4.535674304E-2,-5.803219974E-3,2.454151064E-1
6.550193600E-1,-4.780020565E-2,8.704829961E-3,2.417499274E-1
6.571199260E-1,-4.276056588E-2,3.161227703E-2,2.380847335E-1
6.592387410E-1,-2.703078650E-2,3.268129006E-2,2.331978083E-1
6.613445970E-1,-7.635815535E-3,1.924225502E-2,2.244929820E-1
6.634452140E-1,1.649336144E-2,5.803219974E-3,2.109012306E-1
6.655621970E-1,3.695734590E-2,-2.107485011E-2,1.985312104E-1
6.676677370E-1,5.009094998E-2,-4.780020565E-2,1.887573600E-1
6.697827580E-1,5.253441259E-2,-4.046982154E-2,1.850921661E-1
6.718878810E-1,3.436116874E-2,-2.580905706E-2,1.803579628E-1
6.739970220E-1,1.496619824E-2,-1.954768784E-2,1.695151031E-1
6.761021550E-1,3.054326226E-4,-1.954768784E-2,1.597412676E-1
6.782033710E-1,-5.803219974E-3,-7.330383174E-3,1.550070494E-1
6.803209970E-1,-9.162978968E-4,-6.108652335E-3,1.476766765E-1
6.824290810E-1,1.374446787E-3,-2.306016348E-2,1.414152980E-1
6.845398280E-1,-2.443460980E-3,-4.841107130E-2,1.389718503E-1
6.866457650E-1,-8.399397135E-3,-3.634648025E-2,1.427897513E-1
6.887542550E-1,-1.191187184E-2,-2.183843218E-2,1.476766765E-1
6.908622670E-1,-1.802052557E-2,-2.535090782E-2,1.513418704E-1
6.929705440E-1,-2.657263726E-2,-2.168571576E-2,1.550070494E-1
6.950796030E-1,-2.764165215E-2,-1.679879427E-2,1.574505121E-1
6.971869540E-1,-2.153299935E-2,4.886921961E-3,1.586722434E-1
6.992930030E-1,-1.527163107E-2,2.183843218E-2,1.574505121E-1
7.013929990E-1,-1.786780916E-2,2.443460980E-3,1.525636017E-1
7.035120880E-1,-2.657263726E-2,-2.886338346E-2,1.452332139E-1
7.056199470E-1,-3.145955876E-2,-2.641992271E-2,1.453859210E-1
7.077307360E-1,-4.230241850E-2,-1.069014147E-2,1.502728462E-1
7.098341200E-1,-5.054909736E-2,1.725694351E-2,1.577559561E-1
7.119330990E-1,-5.650503561E-2,3.909537569E-2,1.601994038E-1
7.140428910E-1,-5.054909736E-2,2.092213556E-2,1.553124934E-1
7.161611150E-1,-3.145955876E-2,-1.679879427E-2,1.453859210E-1
7.182696670E-1,-6.108652335E-3,-4.718934000E-2,1.427897513E-1
7.203722780E-1,9.621127509E-3,-6.551529467E-2,1.340849251E-1
7.224858550E-1,1.435533352E-2,-8.857546002E-2,1.243110746E-1
7.245943330E-1,2.138028294E-2,-1.091921628E-1,1.156062484E-1
7.267046040E-1,1.175915636E-2,-1.030835137E-1,1.145372316E-1
7.288116290E-1,9.162978968E-4,-8.231408894E-2,1.182024255E-1
7.309187460E-1,3.512475174E-3,-5.940664560E-2,1.291979998E-1
7.330265250E-1,-4.886921961E-3,-6.658431143E-2,1.353066564E-1
7.351340570E-1,-1.588249579E-2,-6.536258012E-2,1.488984078E-1
7.372439920E-1,-2.061670274E-2,-5.558873713E-2,1.586722434E-1
7.393491660E-1,-2.519819140E-2,-2.779436857E-2,1.733330190E-1
7.414498640E-1,-1.771509275E-2,4.886921961E-3,1.855503172E-1
7.435660550E-1,-3.054326167E-3,8.399397135E-3,1.927279830E-1
7.456674740E-1,1.130100712E-2,-2.443460934E-2,1.890627891E-1
7.477874900E-1,2.687807009E-2,-5.238169432E-2,1.791362315E-1
7.498931320E-1,3.176499158E-2,-6.215553731E-2,1.718058437E-1
7.520036260E-1,1.954768784E-2,-5.955936015E-2,1.656972021E-1
7.541070500E-1,2.076941915E-2,-4.749477282E-2,1.571450830E-1
7.562078290E-1,1.954768784E-2,-4.138612002E-2,1.475239545E-1
7.583260340E-1,1.221730467E-2,-2.809980139E-2,1.377501190E-1
7.604344940E-1,5.039638374E-3,-1.221730467E-2,1.232420653E-1
7.625459850E-1,-1.221730490E-3,-1.572977938E-2,1.110247597E-1
7.646489200E-1,-8.399397135E-3,-7.177666761E-3,1.012509167E-1
7.667517030E-1,-1.817324013E-2,8.552113548E-3,9.651670605E-2
7.688671220E-1,-2.901609987E-2,2.443460934E-2,9.300423414E-2
7.709755510E-1,-2.535090782E-2,2.321287990E-2,9.529497474E-2
7.730856070E-1,-2.306016348E-2,-1.069014193E-3,8.918632567E-2
7.751920920E-1,-1.954768784E-2,-3.252857551E-2,9.162978828E-2
7.773005830E-1,-1.481348183E-2,-6.047565863E-2,9.636399150E-2
7.794079650E-1,-1.481348183E-2,-7.131851465E-2,1.085812971E-1
7.815098730E-1,-1.343903504E-2,-4.718934000E-2,1.244637966E-1
7.836249750E-1,-1.939497143E-2,-3.863722831E-2,1.366810948E-1
7.857328850E-1,-1.572977938E-2,-5.681046844E-2,1.440114826E-1
7.878407340E-1,-3.665191587E-3,-7.757988572E-2,1.524108797E-1
7.899392860E-1,6.108652335E-3,-7.162395120E-2,1.621847153E-1
7.920565250E-1,2.336559631E-2,-2.809980139E-2,1.766927689E-1
7.941649530E-1,2.977968007E-2,1.893682219E-2,1.974621862E-1
7.962768810E-1,1.404990070E-2,5.803219974E-3,2.096794993E-1
7.983832550E-1,-9.162978269E-3,-9.773843922E-3,2.183843255E-1
8.004921630E-1,-1.527163107E-2,-3.634648025E-2,2.208277881E-1
8.025992390E-1,-1.420261711E-2,-5.818491429E-2,2.183843255E-1
8.047076270E-1,-1.298088674E-2,-6.291911751E-2,2.147191316E-1
8.068156090E-1,-8.246680722E-3,-6.307183951E-2,2.147191316E-1
8.089215050E-1,1.679879380E-3,-4.016438872E-2,2.110539377E-1
8.110221210E-1,5.497787148E-3,2.138028387E-3,2.073887438E-1
8.131416180E-1,1.832595794E-3,1.557706390E-2,2.037235647E-1
8.152486420E-1,-9.162978269E-3,8.399397135E-3,2.000583708E-1
8.173596150E-1,-2.260201424E-2,-3.512475174E-3,1.977676302E-1
8.194656740E-1,-2.764165215E-2,-2.779436857E-2,1.855503172E-1
8.215732480E-1,-2.046398632E-2,-3.863722831E-2,1.672243625E-1
8.236714140E-1,-1.191187184E-2,-1.572977938E-2,1.488984078E-1
8.257899940E-1,-1.679879427E-2,-1.069014193E-3,1.293507218E-1
8.278978230E-1,-2.275473066E-2,2.321287990E-2,1.148426682E-1
8.300100060E-1,-2.764165215E-2,4.138612002E-2,1.038470939E-1
8.321097680E-1,-3.268129006E-2,5.039638374E-3,9.285151958E-2
8.342037930E-1,-3.176499158E-2,-2.153299935E-2,8.918632567E-2
8.363310910E-1,-2.672535367E-2,1.374446787E-3,9.529497474E-2
8.384394600E-1,-1.939497143E-2,8.552113548E-3,9.040805697E-2
8.405525080E-1,-1.710422710E-2,-1.924225502E-2,8.429940045E-2
8.426537850E-1,-1.359175146E-2,-4.703662544E-2,8.048149943E-2
8.447565470E-1,-1.252273750E-2,-6.398813426E-2,7.681630552E-2
8.468736530E-1,-6.261368748E-3,-1.924225502E-2,7.315111160E-2
8.489807190E-1,-1.206458826E-2,3.512475267E-2,7.208210230E-2
8.510909390E-1,-1.817324013E-2,3.649919853E-2,6.108652428E-2
8.531968460E-1,-2.458732575E-2,-9.468411095E-3,4.657847434E-2
8.553054370E-1,-3.100141138E-2,-7.712173462E-2,3.176499158E-2
8.574137040E-1,-2.993239649E-2,-9.040805697E-2,2.687807009E-2
8.595195590E-1,-2.229658142E-2,-1.908953860E-2,2.336559631E-2
8.616205620E-1,-1.588249579E-2,4.856378585E-2,2.458732575E-2
8.637379020E-1,-4.734205548E-3,7.635815442E-2,2.580905706E-2
8.658431770E-1,3.512475174E-3,4.352414981E-2,2.076941915E-2
8.679481890E-1,9.468411095E-3,2.443460980E-3,1.710422710E-2
8.700633210E-1,1.435533352E-2,1.328631863E-2,1.099557430E-2
8.721716490E-1,2.275473066E-2,9.621127509E-3,2.290744567E-3
8.742819180E-1,2.611448988E-2,-2.672535367E-2,-3.817907767E-3
8.763848340E-1,3.802636266E-2,-5.955936015E-2,-1.130100712E-2
8.784842810E-1,4.291328415E-2,-7.651086897E-2,-1.618792862E-2
8.806055370E-1,4.306599870E-2,-4.871650413E-2,-6.414085161E-3
8.827125430E-1,3.100141138E-2,-2.321287990E-2,-1.527163113E-4
8.848239620E-1,1.893682219E-2,-2.061670274E-2,5.955935922E-3
8.869287690E-1,1.527163107E-2,-2.061670274E-2,1.084285788E-2
8.890373200E-1,9.162978269E-3,-2.779436857E-2,8.552113548E-3
8.911457500E-1,5.650503561E-3,-1.084285788E-2,7.330383174E-3
8.932542510E-1,-1.206458826E-2,-7.727445662E-2,-5.726861581E-2
8.953626480E-1,-3.878994286E-2,-2.015855312E-1,-1.524108797E-1
8.974684120E-1,-2.916881628E-2,-1.760819107E-1,-2.037235647E-1
8.995651630E-1,1.053742506E-2,-2.153299935E-2,-2.000583708E-1
9.016868770E-1,3.817907721E-2,1.052215397E-1,-1.574505121E-1
9.037948190E-1,3.252857551E-2,1.221730486E-1,-1.024726480E-1
9.059066650E-1,-9.010262787E-3,5.100724846E-2,-5.955936015E-2
9.080103850E-1,-5.314527452E-2,-4.306599870E-2,-3.023782931E-2
9.101125780E-1,-8.491026610E-2,-9.728029370E-2,-6.872233935E-3
9.122181070E-1,-8.720101416E-2,-8.261952549E-2,2.901609987E-3
9.143374710E-1,-6.505715102E-2,-3.558290005E-2,-1.664607786E-2
9.164458190E-1,-2.122756653E-2,1.481348183E-2,-3.756821156E-2
9.185554790E-1,2.840523422E-2,5.955935922E-3,-7.086037099E-2
9.206625960E-1,6.337726861E-2,-1.374446787E-2,-1.052215397E-1
9.227761220E-1,7.406741381E-2,-3.787364438E-2,-1.285871267E-1
9.248765040E-1,5.574145541E-2,-4.382958263E-2,-1.357648075E-1
9.269861840E-1,2.428189293E-2,-3.023782931E-2,-1.379028261E-1
9.290926090E-1,-3.512475174E-3,-1.069014147E-2,-1.267545372E-1
9.312010490E-1,-1.328631863E-2,-3.237585723E-2,-1.108720452E-1
9.333004550E-1,-1.206458826E-2,-4.810563847E-2,-8.659014851E-2
9.354199110E-1,5.039638374E-3,-4.825835302E-2,-5.986479297E-2
9.375267730E-1,2.000583708E-2,-2.550362423E-2,-2.565634064E-2
9.396378770E-1,3.848451003E-2,9.162978968E-4,1.450804994E-2
9.417432750E-1,4.489859566E-2,1.771509275E-2,6.078109145E-2
9.438518360E-1,4.169155285E-2,3.955352306E-2,1.157589629E-1
9.459601940E-1,2.611448988E-2,3.115412779E-2,1.646281779E-1
9.480693760E-1,4.276056774E-3,-1.374446787E-3,2.012801021E-1
9.501766150E-1,-1.389718428E-2,4.734205548E-3,2.220495194E-1
9.522847490E-1,-1.603521220E-2,5.314527452E-2,2.295326144E-1
9.543957610E-1,-1.588249579E-2,8.109235764E-2,2.246456891E-1
9.565132230E-1,-2.596177394E-3,8.338310570E-2,2.124283910E-1
9.586096180E-1,9.315694682E-3,5.421429127E-2,1.951714456E-1
9.607178030E-1,2.733621933E-2,3.588833287E-2,1.731802970E-1
9.628231910E-1,4.184427112E-2,4.550946131E-2,1.473712474E-1
9.649370720E-1,3.680463135E-2,2.260201424E-2,1.169806942E-1
9.670499980E-1,5.650503561E-3,-4.367686436E-2,5.238169432E-2
9.691510920E-1,-2.641992271E-2,-6.872233748E-2,-1.572977938E-2
9.712588290E-1,-5.115996301E-2,-8.292495459E-2,-9.117163718E-2
9.733653560E-1,-7.254024595E-2,-1.273654103E-1,-1.924225539E-1
9.754754630E-1,-7.544185966E-2,-1.406517178E-1,-2.570215464E-1
9.775836790E-1,-2.290744567E-3,5.955936015E-2,-2.035708427E-1
9.796920480E-1,4.077525437E-2,1.342376322E-1,-1.586722434E-1
9.817996120E-1,2.809980139E-2,1.572977938E-2,-1.317941695E-1
9.839069630E-1,1.970040426E-2,-4.474587739E-2,-6.841690838E-2
9.860155430E-1,2.382374369E-2,-1.588249579E-2,1.328631863E-2
9.881225790E-1,2.932153270E-2,2.993239649E-2,9.498954564E-2
9.902233280E-1,2.504547499E-2,4.932736978E-2,1.634064466E-1
9.923417870E-1,2.382374369E-2,4.199698567E-2,1.756237596E-1
9.944500630E-1,-1.832595654E-2,-3.252857551E-2,9.651670605E-2
9.965607710E-1,-5.192354694E-2,-9.392052889E-2,5.039638374E-3
9.986648060E-1,-8.689557761E-2,-1.261436790E-1,-1.276708394E-1
1.000764598E0,-1.003346145E-1,-4.963280261E-2,-2.397646159E-1
1.002883648E0,-6.444628537E-2,1.146899462E-1,-2.835941911E-1
1.004990723E0,-5.849034712E-2,1.256855279E-1,-3.312416673E-1
1.007101766E0,-5.910121277E-2,4.581489414E-2,-3.654501438E-1
1.009204397E0,-3.512475267E-2,-2.580905706E-2,-3.498730659E-1
1.011301748E0,1.374446787E-2,-3.481931984E-2,-2.952006161E-1
1.013411693E0,4.948008433E-2,-3.665191587E-3,-2.270891517E-1
1.015520681E0,4.749477282E-2,2.290744567E-3,-1.551597714E-1
1.017630768E0,2.076941915E-2,-4.352414981E-2,-9.651670605E-2
1.019738720E0,-1.450804994E-2,-7.712173462E-2,-5.482515693E-2
1.021848940E0,-3.359758854E-2,-5.650503561E-2,-1.450804994E-2
1.023965210E0,-3.436116874E-2,1.481348183E-2,1.603521220E-2
1.026063528E0,-2.535090782E-2,8.017606288E-2,2.474004216E-2
1.028174612E0,-1.206458826E-2,7.635815442E-2,1.970040426E-2
1.030290651E0,1.695151068E-2,4.230241850E-2,1.099557430E-2
1.032399182E0,3.726277873E-2,8.246680722E-3,-2.596177394E-3
1.034499248E0,3.604105115E-2,8.246680722E-3,-1.359175146E-2
1.036614585E0,3.237585723E-2,2.519819140E-2,-2.580905706E-2
1.038722617E0,2.489275858E-2,3.512475174E-3,-5.131268129E-2
1.040833457E0,2.428189293E-2,-6.658431143E-2,-7.941248268E-2
1.042936790E0,3.634648025E-2,-8.964447677E-2,-8.933904022E-2
1.045037517E0,3.772092983E-2,-5.345070735E-2,-8.567385375E-2
1.047156282E0,2.229658142E-2,8.399397135E-3,-7.452555746E-2
1.049265281E0,5.345070735E-3,1.588249579E-2,-6.704246253E-2
1.051374585E0,-1.924225502E-2,-5.299255997E-2,-7.315111160E-2
1.053479026E0,-4.138612002E-2,-7.819075137E-2,-7.910704613E-2
1.055587505E0,-5.696318299E-2,-2.840523422E-2,-7.895433158E-2
1.057697491E0,-5.390885845E-2,7.208210230E-2,-6.291911751E-2
1.059805717E0,-5.146539584E-2,6.108652428E-2,-6.307183951E-2
1.061913943E0,-4.932736978E-2,1.389718428E-2,-6.429356337E-2
1.064019706E0,-4.688390717E-2,1.267545391E-2,-5.574145541E-2
1.066121523E0,-3.329215571E-2,4.031710699E-2,-4.367686436E-2
1.068238701E0,-1.603521220E-2,5.955936015E-2,-3.390302137E-2
1.070347710E0,3.054326167E-3,1.832595654E-2,-4.382958263E-2
1.072456922E0,2.580905706E-2,-4.001167417E-2,-5.986479297E-2
1.074563092E0,4.276056588E-2,-5.467243865E-2,-6.734789163E-2
1.076670676E0,4.031710699E-2,-3.527746722E-2,-7.101308554E-2
1.078778373E0,1.114829071E-2,-2.168571576E-2,-7.819075137E-2
1.080888156E0,-1.557706390E-2,-2.275473066E-2,-8.643743396E-2
1.082997125E0,-2.412917651E-2,-2.382374369E-2,-8.888089657E-2
1.085104821E0,-1.069014147E-2,-2.153299935E-2,-8.659014851E-2
1.087212161E0,5.192354787E-3,-2.290744707E-2,-8.048149943E-2
1.089317711E0,9.926560335E-3,-4.352414981E-2,-7.941248268E-2
1.091429182E0,1.221730467E-2,-5.803219974E-2,-7.819075137E-2
1.093537204E0,1.481348183E-2,-4.963280261E-2,-6.841690838E-2
1.095646274E0,3.100141138E-2,1.084285788E-2,-6.108652428E-2
1.097751427E0,4.321871698E-2,5.421429127E-2,-6.597344577E-2
1.099852888E0,4.306599870E-2,3.604105115E-2,-7.696902007E-2
1.101970320E0,2.580905706E-2,-9.773843922E-3,-1.001819000E-1
1.104078606E0,3.665191587E-3,-3.130684420E-2,-1.305724531E-1
1.106189141E0,-2.183843218E-2,5.345070735E-3,-1.571450830E-1
1.108295179E0,-5.971207842E-2,1.527163107E-2,-1.873829067E-1
1.110403171E0,-7.803803682E-2,8.246680722E-3,-2.055561543E-1
1.112510136E0,-6.459899992E-2,9.315694682E-3,-2.142609805E-1
1.114618910E0,-2.458732575E-2,1.511891466E-2,-2.205223590E-1
1.116729221E0,2.397646010E-2,2.596177394E-3,-2.257147133E-1
1.118836551E0,5.910121277E-2,-1.710422710E-2,-2.260201424E-1
1.120940240E0,6.887505949E-2,-2.321287990E-2,-2.235766798E-1
1.123034245E0,5.283984542E-2,-4.734205827E-2,-2.235766798E-1
1.125161177E0,2.519819140E-2,1.374446787E-3,-2.087631971E-1
1.127269393E0,-8.552113548E-3,3.665191308E-2,-2.023491114E-1
1.129377618E0,-3.772092983E-2,3.573561832E-2,-1.948660165E-1
1.131465814E0,-5.467243865E-2,2.260201424E-2,-1.826487035E-1
1.133586033E0,-5.360342562E-2,-2.901609987E-3,-1.753183305E-1
1.135702447E0,-3.787364438E-2,-2.840523422E-2,-1.559233516E-1
1.137816003E0,-2.306016348E-2,-1.771509275E-2,-1.328631938E-1
1.139920832E0,-4.581489135E-3,1.481348183E-2,-1.059851199E-1
1.142027002E0,1.496619824E-2,1.328631863E-2,-8.781187981E-2
1.144134841E0,3.207042441E-2,-1.374446787E-3,-6.108652428E-2
1.146244409E0,3.695734590E-2,-2.443460934E-2,-3.680463135E-2
1.148354740E0,2.229658142E-2,-4.245513305E-2,-1.481348183E-2
1.150458541E0,4.428773187E-3,-1.206458826E-2,1.221730467E-2
1.152568568E0,-7.330383174E-3,3.039054573E-2,3.543018550E-2
1.154677322E0,-1.695151068E-2,5.100724846E-2,5.390885845E-2
1.156780206E0,-1.695151068E-2,2.916881628E-2,5.619960278E-2
1.158870773E0,-7.635815535E-3,-2.535090782E-2,5.742133409E-2
1.160990758E0,4.428773187E-3,-4.367686436E-2,5.849034712E-2
1.163109431E0,1.802052557E-2,-1.466076635E-2,6.704246253E-2
1.165220464E0,2.550362423E-2,2.138028387E-3,6.811147183E-2
1.167319625E0,8.399397135E-3,-1.695151068E-2,7.070764899E-2
1.169436843E0,-1.114829071E-2,-4.108068720E-2,7.452555746E-2
1.171552913E0,-2.214386500E-2,-5.070181563E-2,8.429940045E-2
1.173652949E0,-1.954768784E-2,-2.168571576E-2,9.651670605E-2
1.175755284E0,-1.084285788E-2,-9.621127509E-3,1.036943719E-1
1.177849828E0,-4.886921961E-3,-2.535090782E-2,1.061378345E-1
1.179974991E0,-5.039638374E-3,-3.756821156E-2,1.012509167E-1
1.182080287E0,-1.527163113E-4,-3.756821156E-2,9.269879758E-2
1.184184565E0,7.024950348E-3,-3.878994286E-2,7.681630552E-2
1.186287409E0,5.803219974E-3,-4.001167417E-2,5.849034712E-2
1.188395981E0,-4.123340361E-3,-5.070181563E-2,3.909537569E-2
1.190508724E0,-7.941247895E-3,-5.070181563E-2,9.773843922E-3
1.192628017E0,-6.872233935E-3,-3.741549700E-2,-1.954768784E-2
1.194736018E0,-1.175915636E-2,-2.153299935E-2,-4.993823543E-2
1.196842432E0,-1.298088674E-2,-8.246680722E-3,-8.399397135E-2
1.198943558E0,-1.450804994E-2,-1.175915636E-2,-1.169806942E-1
1.201058844E0,-2.214386500E-2,-3.955352306E-2,-1.536326110E-1
1.203166337E0,-3.084869497E-2,-4.902193695E-2,-1.791362315E-1
1.205277075E0,-3.313944116E-2,-3.207042441E-2,-1.913535446E-1
1.207382462E0,-2.336559631E-2,-7.941247895E-3,-1.876883507E-1
1.209488308E0,-1.237002108E-2,-5.650503561E-3,-1.779145002E-1
1.211589026E0,-3.817907767E-3,-2.275473066E-2,-1.658499092E-1
1.213707893E0,4.734205548E-3,-1.908953860E-2,-1.464549452E-1
1.215815944E0,9.773843922E-3,-1.802052557E-2,-1.354593635E-1
1.217927282E0,1.588249579E-2,-1.802052557E-2,-1.256855279E-1
1.220029730E0,1.588249579E-2,-2.657263726E-2,-1.134682223E-1
1.222131171E0,1.359175146E-2,-1.802052557E-2,-1.061378345E-1
1.224248500E0,7.483099122E-3,-1.435533352E-2,-1.024726480E-1
1.226356929E0,6.261368748E-3,-1.924225502E-2,-9.880745411E-2
1.228467536E0,2.596177394E-3,-2.641992271E-2,-1.000291854E-1
1.230573340E0,-1.069014193E-3,-2.519819140E-2,-9.514226019E-2
1.232681841E0,-9.162978968E-4,-9.468411095E-3,-9.025534242E-2
1.234791082E0,1.740965992E-2,1.221730490E-3,-8.429940045E-2
1.236898088E0,3.436116874E-2,-9.773843922E-3,-8.552113175E-2
1.239006385E0,3.420845419E-2,-2.916881628E-2,-9.651670605E-2
1.241113960E0,2.183843218E-2,-5.329799280E-2,-1.099557430E-1
1.243221249E0,5.955935922E-3,-4.948008433E-2,-1.244637966E-1
1.245330003E0,5.039638374E-3,-8.246680722E-3,-1.269072592E-1
1.247439653E0,3.817907767E-3,9.926560335E-3,-1.291979998E-1
1.249547573E0,-1.069014193E-3,8.704829961E-3,-1.279762685E-1
1.251654447E0,-5.955935922E-3,1.527163084E-3,-1.230893433E-1
1.253761462E0,-3.512475174E-3,-4.581489135E-3,-1.230893433E-1
1.255862078E0,-1.069014193E-3,-1.313360315E-2,-1.232420653E-1
1.257981066E0,1.374446787E-3,-1.557706390E-2,-1.195768714E-1
1.260088782E0,2.443460980E-3,-3.375030309E-2,-1.171334088E-1
1.262199572E0,6.108652335E-3,-3.970624134E-2,-1.195768714E-1
1.264306932E0,8.552113548E-3,-3.619376570E-2,-1.146899462E-1
1.266420224E0,8.552113548E-3,-2.290744707E-2,-1.110247597E-1
1.268522956E0,1.374446787E-3,-2.397646010E-2,-1.061378345E-1
1.270630338E0,-7.177666761E-3,-2.641992271E-2,-9.880745411E-2
1.272737669E0,-1.679879427E-2,-2.504547499E-2,-9.865473956E-2
1.274842293E0,-2.046398632E-2,-2.871066704E-2,-9.498954564E-2
1.276939186E0,-1.069014147E-2,-2.275473066E-2,-9.269879758E-2
1.279063250E0,-9.162978968E-4,-2.397646010E-2,-8.536841720E-2
1.281171608E0,5.039638374E-3,-2.168571576E-2,-8.414668590E-2
1.283283750E0,1.527163113E-4,-3.252857551E-2,-8.903361112E-2
1.285389096E0,-6.108652335E-3,-4.703662544E-2,-9.880745411E-2
1.287496020E0,-9.773843922E-3,-4.321871698E-2,-1.085812971E-1
1.289604398E0,-1.832595654E-2,-4.810563847E-2,-1.194241568E-1
1.291712136E0,-2.565634064E-2,-5.039638281E-2,-1.340849251E-1
1.293820698E0,-2.809980139E-2,-4.062253982E-2,-1.473712474E-1
1.295929035E0,-1.832595654E-2,-2.382374369E-2,-1.499674171E-1
1.298034738E0,-1.114829071E-2,-3.833179548E-2,-1.585195363E-1
1.300135222E0,-8.704829961E-3,-4.688390717E-2,-1.585195363E-1
1.302253172E0,-2.596177394E-3,-4.092797264E-2,-1.511891484E-1
1.304360796E0,2.290744567E-3,-4.092797264E-2,-1.488984078E-1
1.306472756E0,4.734205548E-3,-4.459316283E-2,-1.403462887E-1
1.308578550E0,3.665191587E-3,-3.497203439E-2,-1.293507218E-1
1.310686898E0,-2.443460980E-3,-3.726277873E-2,-1.232420653E-1
1.312794910E0,-9.773843922E-3,-4.932736978E-2,-1.169806942E-1
1.314903207E0,-1.099557430E-2,-4.199698567E-2,-1.120937690E-1
1.317011748E0,-1.328631863E-2,-3.237585723E-2,-1.096503139E-1
1.319118610E0,-9.621127509E-3,-2.871066704E-2,-1.047633886E-1
1.321219186E0,-2.290744567E-3,-3.008511290E-2,-1.024726480E-1
1.323336262E0,6.261368748E-3,-2.412917651E-2,-1.000291854E-1
1.325444253E0,7.483099122E-3,-2.412917651E-2,-1.024726480E-1
1.327554930E0,4.886921961E-3,-3.252857551E-2,-1.024726480E-1
1.329661009E0,9.773843922E-3,-3.375030309E-2,-1.036943719E-1
1.331769184E0,8.552113548E-3,-3.130684420E-2,-1.012509167E-1
1.333877950E0,2.596177394E-3,-3.130684420E-2,-1.012509167E-1
1.335986826E0,-4.734205548E-3,-3.130684420E-2,-9.758572280E-2
1.338094258E0,-1.313360315E-2,-2.397646010E-2,-9.743300825E-2
1.340203185E0,-1.313360315E-2,-2.031126991E-2,-9.498954564E-2
1.342308308E0,-1.191187184E-2,-1.786780916E-2,-8.659014851E-2
1.344411762E0,-7.024950348E-3,-2.031126991E-2,-8.414668590E-2
1.346526691E0,-9.468411095E-3,-3.604105115E-2,-8.048149943E-2
1.348635232E0,-1.069014147E-2,-2.993239649E-2,-7.803803682E-2
1.350745452E0,-9.468411095E-3,-2.519819140E-2,-7.559457421E-2
1.352850107E0,-7.024950348E-3,-1.908953860E-2,-6.948592514E-2
1.354949675E0,-1.985311974E-3,-1.191187184E-2,-6.582073122E-2
1.357068288E0,-1.985311974E-3,-1.191187184E-2,-6.582073122E-2
1.359179240E0,-4.581489135E-3,-2.275473066E-2,-6.826419383E-2
1.361299611E0,-4.581489135E-3,-2.764165215E-2,-6.704246253E-2
1.363393127E0,-9.162978968E-4,-2.046398632E-2,-6.582073122E-2
1.365501138E0,1.527163084E-3,-1.557706390E-2,-6.704246253E-2
1.367606668E0,1.527163084E-3,-1.924225502E-2,-7.070764899E-2
1.369718364E0,-9.162978968E-4,-2.397646010E-2,-7.070764899E-2
1.371824392E0,-2.138028387E-3,-2.168571576E-2,-6.948592514E-2
1.373932607E0,-1.985311974E-3,-1.557706390E-2,-6.337726861E-2
1.376043254E0,-7.635815418E-4,-1.313360315E-2,-5.849034712E-2
1.378160248E0,4.581489484E-4,-1.557706390E-2,-4.871650413E-2
1.380259318E0,-7.635815418E-4,-1.313360315E-2,-4.138612002E-2
1.382367758E0,-1.832595794E-3,-1.191187184E-2,-3.161227703E-2
1.384473348E0,-6.108652451E-4,-1.084285788E-2,-2.443460934E-2
1.386581513E0,6.108652451E-4,-8.399397135E-3,-1.466076635E-2
1.388679118E0,1.985311974E-3,-4.734205548E-3,-7.330383174E-3
1.390800181E0,3.207042580E-3,-2.443460980E-3,-4.886921961E-3
1.392908081E0,1.985311974E-3,-2.290744567E-3,-3.665191587E-3
1.395019796E0,1.985311974E-3,-4.734205548E-3,0.000000000E0
1.397124797E0,7.635815418E-4,-3.512475174E-3,1.221730490E-3
1.399230561E0,3.207042580E-3,-2.443460980E-3,-1.221730490E-3
1.401332103E0,3.207042580E-3,-5.955935922E-3,-2.443460980E-3
1.403450634E0,3.207042580E-3,-9.621127509E-3,-3.665191587E-3
1.405558177E0,4.428773187E-3,-8.399397135E-3,-3.665191587E-3
1.407666952E0,3.207042580E-3,-8.399397135E-3,-6.108652335E-3
1.409762859E0,4.276056774E-3,-9.621127509E-3,-8.552113548E-3
1.411878022E0,4.276056774E-3,-8.399397135E-3,-9.773843922E-3
1.413990733E0,3.054326167E-3,-7.177666761E-3,-1.221730467E-2
1.416101604E0,3.054326167E-3,-5.955935922E-3,-1.588249579E-2
1.418208823E0,4.276056774E-3,-3.512475174E-3,-1.832595654E-2
1.420316113E0,4.276056774E-3,-5.955935922E-3,-2.565634064E-2
1.422422151E0,3.054326167E-3,-3.512475174E-3,-2.932153270E-2
1.424532380E0,3.054326167E-3,-1.069014193E-3,-3.420845419E-2
1.426637014E0,4.276056774E-3,2.443460980E-3,-3.909537569E-2
1.428736970E0,4.276056774E-3,6.108652335E-3,-4.871650413E-2
1.430858328E0,1.832595794E-3,8.552113548E-3,-5.482515693E-2
1.432970980E0,1.679879380E-3,1.343903504E-2,-6.459899992E-2
1.435075674E0,1.679879380E-3,1.710422710E-2,-7.559457421E-2
1.437182862E0,-7.635815418E-4,1.710422710E-2,-8.292495459E-2
1.439288240E0,4.581489484E-4,1.588249579E-2,-9.392052889E-2
1.441395733E0,4.581489484E-4,2.076941915E-2,-1.012509167E-1
1.443495709E0,-9.162978968E-4,1.954768784E-2,-1.120937690E-1
1.445614564E0,3.054326226E-4,1.832595654E-2,-1.206458881E-1
1.447722750E0,1.527163113E-4,1.832595654E-2,-1.328631938E-1
1.449833529E0,1.374446787E-3,1.237002108E-2,-1.426370293E-1
1.451939414E0,2.596177394E-3,1.114829071E-2,-1.487456858E-1
1.454048657E0,4.886921961E-3,1.114829071E-2,-1.548543423E-1
1.456155967E0,7.330383174E-3,7.483099122E-3,-1.572978050E-1
1.458264112E0,9.773843922E-3,8.704829961E-3,-1.585195363E-1
1.460372042E0,9.773843922E-3,1.588249579E-2,-1.621847153E-1
1.462480359E0,7.330383174E-3,1.237002108E-2,-1.658499092E-1
1.464586153E0,8.552113548E-3,1.832595654E-2,-1.682933718E-1
1.466686749E0,7.330383174E-3,1.710422710E-2,-1.768454909E-1
1.468805616E0,7.177666761E-3,1.710422710E-2,-1.829541475E-1
1.470914553E0,7.177666761E-3,1.954768784E-2,-1.853975952E-1
1.473024539E0,1.206458826E-2,2.443460934E-2,-1.878410578E-1
1.475129294E0,1.939497143E-2,3.039054573E-2,-1.841758788E-1
1.477229881E0,2.916881628E-2,3.145955876E-2,-1.818851233E-1
1.479345777E0,3.161227703E-2,2.428189293E-2,-1.794416606E-1
1.481449080E0,2.428189293E-2,1.817324013E-2,-1.782199293E-1
1.483564975E0,1.466076635E-2,1.954768784E-2,-1.719585657E-1
1.485671429E0,7.330383174E-3,1.954768784E-2,-1.597412676E-1
1.487781801E0,1.527163113E-4,1.603521220E-2,-1.536326110E-1
1.489887810E0,-9.621127509E-3,1.970040426E-2,-1.463022232E-1
1.491995893E0,-1.435533352E-2,2.092213556E-2,-1.401935667E-1
1.494103986E0,-1.313360315E-2,2.580905706E-2,-1.389718503E-1
1.496212456E0,-9.621127509E-3,1.359175146E-2,-1.365283877E-1
1.498318189E0,-4.734205548E-3,6.261368748E-3,-1.304197311E-1
1.500418358E0,3.054326226E-4,1.954768784E-2,-1.230893433E-1
1.502535872E0,4.123340361E-3,3.772092983E-2,-1.133155003E-1
1.504645358E0,1.267545391E-2,3.039054573E-2,-9.880745411E-2
1.506756574E0,1.740965992E-2,2.183843218E-2,-9.025534242E-2
1.508859684E0,1.145372353E-2,1.572977938E-2,-8.048149943E-2
1.510959964E0,4.123340361E-3,1.710422710E-2,-7.559457421E-2
1.513078261E0,-1.832595794E-3,2.794708498E-2,-6.459899992E-2
1.515186658E0,-6.108652451E-4,3.039054573E-2,-6.093380973E-2
1.517295108E0,4.276056774E-3,2.794708498E-2,-6.459899992E-2
1.519395216E0,1.267545391E-2,2.794708498E-2,-6.948592514E-2
1.521519219E0,1.878410578E-2,2.183843218E-2,-7.696902007E-2
1.523617253E0,2.244929783E-2,2.168571576E-2,-8.185594529E-2
1.525718143E0,2.229658142E-2,2.779436857E-2,-9.025534242E-2
1.527824589E0,2.107485011E-2,2.183843218E-2,-9.880745411E-2
1.529944563E0,2.214386500E-2,7.330383174E-3,-1.024726480E-1
1.532055038E0,1.847867295E-2,-1.221730490E-3,-1.110247597E-1
1.534163405E0,9.926560335E-3,4.886921961E-3,-1.171334088E-1
1.536269332E0,5.039638374E-3,1.221730467E-2,-1.207986027E-1
1.538378513E0,3.054326226E-4,1.481348183E-2,-1.243110746E-1
1.540485864E0,-5.803219974E-3,1.114829071E-2,-1.279762685E-1
1.542594812E0,-5.955935922E-3,1.359175146E-2,-1.365283877E-1
1.544701908E0,-5.955935922E-3,2.443460934E-2,-1.450804919E-1
1.546810419E0,-2.290744567E-3,2.687807009E-2,-1.475239545E-1
1.548918461E0,6.261368748E-3,2.809980139E-2,-1.499674171E-1
1.551026849E0,1.099557430E-2,2.076941915E-2,-1.560760736E-1
1.553132746E0,1.099557430E-2,1.710422710E-2,-1.524108797E-1
1.555234288E0,8.552113548E-3,1.588249579E-2,-1.487456858E-1
1.557351872E0,8.704829961E-3,2.443460934E-2,-1.438587606E-1
1.559456344E0,5.192354787E-3,3.527746722E-2,-1.401935667E-1
1.561555913E0,-9.162978968E-4,3.298672289E-2,-1.340849251E-1
1.563674759E0,-9.468411095E-3,1.970040426E-2,-1.279762685E-1
1.565783461E0,-7.024950348E-3,2.092213556E-2,-1.291979998E-1
1.567896519E0,1.527163084E-3,3.405573592E-2,-1.279762685E-1
1.570001683E0,6.566801574E-3,5.940664560E-2,-1.243110746E-1
1.572110652E0,1.145372353E-2,6.673702598E-2,-1.218676195E-1
1.574215051E0,1.756237634E-2,5.451972410E-2,-1.195768714E-1
1.576315455E0,3.970623948E-3,2.565634064E-2,-1.171334088E-1
1.578433852E0,-2.290744707E-2,-1.649336144E-2,-1.133155003E-1
1.580542262E0,-4.489859566E-2,-9.010262787E-3,-1.156062484E-1
1.582653112E0,-5.436700583E-2,4.306599870E-2,-1.227839142E-1
1.584758876E0,-5.161811411E-2,8.048149943E-2,-1.252273768E-1
1.586864914E0,-4.688390717E-2,8.048149943E-2,-1.264491081E-1
1.588966914E0,-3.711006418E-2,6.948592514E-2,-1.241583601E-1
1.591083481E0,-2.382374369E-2,6.582073122E-2,-1.192714423E-1
1.593191717E0,-1.832595794E-3,6.200282276E-2,-1.120937690E-1
1.595302088E0,1.634064503E-2,4.841107130E-2,-1.036943719E-1
1.597403712E0,2.489275858E-2,4.841107130E-2,-8.659014851E-2
1.599495824E0,2.122756653E-2,3.756821156E-2,-7.574728876E-2
1.601614905E0,1.038470957E-2,3.634648025E-2,-7.070764899E-2
1.603733282E0,7.635815418E-4,4.978551716E-2,-5.971207842E-2
1.605846888E0,-7.635815535E-3,4.978551716E-2,-4.871650413E-2
1.607949753E0,-1.267545391E-2,3.894266114E-2,-4.627304152E-2
1.610048661E0,-8.857546374E-3,4.856378585E-2,-4.382958263E-2
1.612165961E0,9.162978968E-4,7.269296050E-2,-4.016438872E-2
1.614274297E0,3.207042580E-3,4.734205827E-2,-3.894266114E-2
1.616384781E0,4.428773187E-3,1.817324013E-2,-3.054326214E-2
1.618490759E0,1.175915636E-2,2.306016348E-2,-2.443460934E-2
1.620598863E0,3.008511290E-2,3.863722831E-2,-2.076941915E-2
1.622706845E0,3.619376570E-2,3.970624134E-2,-1.359175146E-2
1.624814357E0,2.046398632E-2,4.352414981E-2,-8.552113548E-3
1.626924149E0,4.734205548E-3,6.536258012E-2,-3.512475174E-3
1.629031948E0,-1.527163113E-4,4.856378585E-2,-1.069014193E-3
1.631137996E0,5.803219974E-3,2.779436857E-2,0.000000000E0
1.633238319E0,7.024950348E-3,3.634648025E-2,1.221730490E-3
1.635356685E0,3.359758761E-3,2.901609987E-2,8.552113548E-3
1.637465216E0,-7.330383174E-3,3.756821156E-2,2.321287990E-2
1.639576728E0,-1.817324013E-2,6.307183951E-2,3.558290005E-2
1.641678789E0,-2.535090782E-2,7.284568250E-2,4.535674304E-2
1.643779477E0,-1.557706390E-2,5.589416996E-2,5.879577994E-2
1.645897802E0,9.926560335E-3,4.596760869E-2,6.582073122E-2
1.648006242E0,2.809980139E-2,3.237585723E-2,6.826419383E-2
1.650117011E0,3.405573592E-2,8.246680722E-3,6.933320314E-2
1.652222613E0,1.939497143E-2,1.435533352E-2,7.070764899E-2
1.654328742E0,3.054326226E-4,5.681046844E-2,6.963863969E-2
1.656429125E0,-1.557706390E-2,5.940664560E-2,6.719517708E-2
1.658535357E0,-1.206458826E-2,2.550362423E-2,6.475171447E-2
1.660653704E0,-3.817907767E-3,3.665191587E-3,6.108652428E-2
1.662759132E0,-7.483099122E-3,-4.734205548E-3,5.864306539E-2
1.664859351E0,-1.099557430E-2,1.343903504E-2,5.986479297E-2
1.666980414E0,-3.512475174E-3,5.085453019E-2,6.719517708E-2
1.669089068E0,1.527163113E-4,3.985895589E-2,7.941248268E-2
1.671199888E0,2.596177394E-3,1.817324013E-2,9.636399150E-2
1.673306384E0,-4.581489135E-3,1.695151068E-2,1.159116775E-1
1.675409909E0,-2.290744567E-3,1.221730490E-3,1.220203340E-1
1.677507769E0,2.596177394E-3,-9.773843922E-3,1.171334088E-1
1.679629575E0,4.886921961E-3,-1.221730490E-3,1.012509167E-1
1.681737963E0,7.330383174E-3,2.779436857E-2,7.437284291E-2
1.683849821E0,-2.443460980E-3,3.268129006E-2,5.009094998E-2
1.685954333E0,-9.926560335E-3,1.710422710E-2,2.199114859E-2
1.688062578E0,-3.970623948E-3,2.076941915E-2,-1.206458826E-2
1.690171994E0,1.053742506E-2,3.023782931E-2,-3.420845419E-2
1.692277861E0,2.382374369E-2,3.023782931E-2,-4.642575979E-2
1.694386360E0,3.100141138E-2,1.802052557E-2,-5.619960278E-2
1.696492032E0,2.962696366E-2,-1.099557430E-2,-5.009094998E-2
1.698595233E0,1.985312067E-2,-2.306016348E-2,-3.909537569E-2
1.700713102E0,1.511891466E-2,-9.773843922E-3,-2.565634064E-2
1.702820819E0,1.878410578E-2,-2.672535367E-2,-1.359175146E-2
1.704931322E0,2.244929783E-2,-2.306016348E-2,-1.114829071E-2
1.707038002E0,9.468411095E-3,3.145955876E-2,-1.099557430E-2
1.709145445E0,-2.809980139E-2,7.299839705E-2,-1.802052557E-2
1.711251382E0,-5.742133409E-2,4.169155285E-2,-2.031126991E-2
1.713351775E0,-6.261368841E-2,-4.123340361E-3,-2.886338346E-2
1.715470223E0,-5.039638281E-2,1.267545391E-2,-4.841107130E-2
1.717578398E0,-1.618792862E-2,6.688974798E-2,-6.444628537E-2
1.719686532E0,3.497203439E-2,8.704829961E-2,-7.574728876E-2
1.721784788E0,7.849618047E-2,3.207042441E-2,-6.750060618E-2
1.723904042E0,9.636399150E-2,-4.428773001E-2,-5.299255997E-2
1.726011401E0,8.277224004E-2,-7.437284291E-2,-4.077525437E-2
1.728122089E0,5.146539584E-2,-5.482515693E-2,-2.962696366E-2
1.730227507E0,-3.054326167E-3,-2.764165215E-2,-2.321287990E-2
1.732335997E0,-6.490442902E-2,1.282817032E-2,-2.153299935E-2
1.734444538E0,-1.010981947E-1,6.505715102E-2,-2.000583708E-2
1.736552590E0,-8.872817457E-2,8.552113175E-2,-1.893682219E-2
1.738661172E0,-4.993823543E-2,8.399397135E-2,-2.275473066E-2
1.740770059E0,-1.114829071E-2,6.429356337E-2,-2.061670274E-2
1.742877461E0,1.542434748E-2,2.046398632E-2,-1.710422710E-2
1.744986459E0,3.100141138E-2,-1.588249579E-2,-8.704829961E-3
1.747095428E0,3.466660157E-2,-2.932153270E-2,-1.374446787E-3
1.749207285E0,2.260201424E-2,-8.552113548E-3,-1.374446787E-3
1.751299977E0,8.246680722E-3,2.535090782E-2,1.221730490E-3
1.753416992E0,2.290744567E-3,5.207626149E-2,1.099557430E-2
1.755524097E0,0.000000000E0,5.329799280E-2,2.932153270E-2
1.757638854E0,-5.039638374E-3,9.773843922E-3,4.520402849E-2
1.759743530E0,-5.192354787E-3,-3.497203439E-2,5.131268129E-2
1.761851694E0,3.359758761E-3,-2.657263726E-2,5.360342562E-2
1.763959197E0,2.779436857E-2,9.162978968E-4,4.871650413E-2
1.766067412E0,4.352414981E-2,2.138028387E-3,4.367686436E-2
1.768176391E0,5.696318299E-2,7.635815418E-4,3.756821156E-2
1.770284464E0,5.192354694E-2,-1.130100712E-2,3.268129006E-2
1.772393158E0,3.726277873E-2,-1.114829071E-2,2.290744707E-2
1.774498686E0,2.779436857E-2,4.459316283E-2,8.399397135E-3
1.776595885E0,2.672535367E-2,8.093964309E-2,2.443460980E-3
1.778717529E0,9.773843922E-3,7.131851465E-2,3.665191587E-3
1.780825327E0,-1.725694351E-2,3.405573592E-2,8.704829961E-3
1.782937378E0,-3.054326214E-2,3.665191308E-2,1.496619824E-2
1.785042348E0,-4.856378585E-2,5.971207842E-2,1.740965992E-2
1.787150410E0,-5.360342562E-2,4.886921868E-2,2.229658142E-2
1.789258942E0,-4.398229718E-2,2.107485011E-2,2.596177347E-2
1.791367890E0,-2.932153270E-2,2.214386500E-2,2.092213556E-2
1.793475149E0,0.000000000E0,5.574145541E-2,1.114829071E-2
1.795583455E0,1.817324013E-2,5.803219974E-2,4.886921961E-3
1.797691925E0,1.542434748E-2,5.955935922E-3,6.108652335E-3
1.799801758E0,-2.901609987E-3,-1.924225502E-2,1.221730490E-3
1.801908163E0,-1.847867295E-2,3.298672289E-2,-4.734205548E-3
1.804016479E0,-1.450804994E-2,1.104138941E-1,-9.468411095E-3
1.806124542E0,1.588249579E-2,1.076650023E-1,-1.084285788E-2
1.808230134E0,5.833763257E-2,7.223481685E-2,-8.704829961E-3
1.810326224E0,7.269296050E-2,3.695734590E-2,-1.527163084E-3
1.812450339E0,6.047565863E-2,2.733621933E-2,3.359758761E-3
1.814557434E0,2.412917651E-2,2.397646010E-2,1.939497143E-2
1.816669658E0,5.803219974E-3,3.665191587E-3,3.909537569E-2
1.818773835E0,9.621127509E-3,-1.588249579E-2,6.948592514E-2
1.820882030E0,2.428189293E-2,-3.054326214E-2,9.743300825E-2
1.822989340E0,4.276056588E-2,-1.679879380E-3,1.156062484E-1
1.825098836E0,4.535674304E-2,3.833179548E-2,1.253800988E-1
1.827207469E0,2.977968007E-2,5.054909736E-2,1.365283877E-1
1.829315827E0,1.023199316E-2,4.214970022E-2,1.403462887E-1
1.831423708E0,-1.664607786E-2,1.695151068E-2,1.452332139E-1
1.833531862E0,-2.031126991E-2,3.665191587E-3,1.379028261E-1
1.835640087E0,-2.046398632E-2,1.527163113E-4,1.209513173E-1
1.837748323E0,-1.679879427E-2,3.634648025E-2,1.001819000E-1
1.839856884E0,-1.175915636E-2,7.391469181E-2,7.208210230E-2
1.841965913E0,1.527163084E-3,8.964447677E-2,3.543018550E-2
1.844073212E0,1.481348183E-2,9.315694869E-2,1.954768784E-2
1.846181398E0,1.084285788E-2,6.169738993E-2,8.552113548E-3
1.848289399E0,1.664607786E-2,1.679879427E-2,1.221730490E-3
1.850397778E0,2.138028294E-2,-1.466076635E-2,-7.483099122E-3
1.852503847E0,2.718350291E-2,-4.001167417E-2,-2.092213556E-2
1.854605673E0,1.740965992E-2,-4.123340547E-2,-3.665191308E-2
1.856722790E0,-5.803219974E-3,-3.848451003E-2,-5.604688451E-2
1.858831880E0,-3.405573592E-2,-7.696902007E-2,-7.177666575E-2
1.860941347E0,-4.001167417E-2,-6.719517708E-2,-7.422012836E-2
1.863047539E0,-1.908953860E-2,-2.382374369E-2,-6.582073122E-2
1.865154451E0,-3.054326167E-3,1.099557430E-2,-5.238169432E-2
1.867261650E0,-7.788531948E-3,2.443460934E-2,-3.772092983E-2
1.869361289E0,-2.718350291E-2,3.054326214E-2,-2.168571576E-2
1.871477744E0,-4.184427112E-2,-4.428773187E-3,-3.359758761E-3
1.873585389E0,-3.451388702E-2,-1.771509275E-2,9.926560335E-3
1.875697410E0,-1.496619824E-2,-1.069014193E-3,3.817907767E-3
1.877804445E0,-1.496619824E-2,1.954768784E-2,-9.621127509E-3
1.879915804E0,-2.703078650E-2,3.543018550E-2,-1.802052557E-2
1.882019595E0,-3.558290005E-2,3.069597855E-2,-2.535090782E-2
1.884128338E0,-2.855795063E-2,-1.175915636E-2,-3.634648025E-2
1.886235954E0,-1.985311974E-3,-2.290744707E-2,-4.993823543E-2
1.888343814E0,8.857546374E-3,-1.084285788E-2,-7.192938030E-2
1.890455132E0,1.496619824E-2,1.695151068E-2,-1.012509167E-1
1.892564090E0,3.573561832E-2,5.192354694E-2,-1.269072592E-1
1.894671775E0,5.253441259E-2,4.932736978E-2,-1.441642046E-1
1.896777468E0,4.749477282E-2,1.191187184E-2,-1.502728462E-1
1.898880547E0,2.794708498E-2,-6.108652335E-3,-1.537853181E-1
1.900995852E0,9.773843922E-3,-4.734205548E-3,-1.548543423E-1
1.903100864E0,-2.443460980E-3,1.114829071E-2,-1.585195363E-1
1.905201439E0,-7.330383174E-3,1.114829071E-2,-1.621847153E-1
1.907320092E0,1.221730490E-3,-9.162978968E-4,-1.621847153E-1
1.909425408E0,1.710422710E-2,7.330383174E-3,-1.611157060E-1
1.911530938E0,1.588249579E-2,-2.290744567E-3,-1.513418704E-1
1.913645217E0,1.359175146E-2,1.832595654E-2,-1.440114826E-1
1.915753685E0,-4.581489135E-3,3.772092983E-2,-1.365283877E-1
1.917861291E0,-2.748893574E-2,5.619960278E-2,-1.229366288E-1
1.919958265E0,-5.528330430E-2,6.597344577E-2,-1.081231460E-1
1.922078321E0,-7.116580009E-2,4.321871698E-2,-1.007927656E-1
1.924186556E0,-6.551529467E-2,-2.351831272E-2,-9.224065393E-2
1.926294842E0,-3.405573592E-2,-6.246097013E-2,-8.643743396E-2
1.928395246E0,-2.290744567E-3,-5.543602258E-2,-8.414668590E-2
1.930514683E0,3.649919853E-2,-7.880161703E-2,-7.590000331E-2
1.932613987E0,5.726861581E-2,-6.566801667E-2,-6.872233748E-2
1.934730207E0,7.223481685E-2,3.207042580E-3,-6.017022580E-2
1.936835941E0,6.887505949E-2,4.184427112E-2,-5.161811411E-2
1.938946242E0,3.940080851E-2,-1.237002108E-2,-3.924809024E-2
1.941049046E0,1.130100712E-2,-6.169738993E-2,-2.565634064E-2
1.943146275E0,5.345070735E-3,-4.841107130E-2,-1.099557430E-2
1.945268121E0,7.941247895E-3,-2.779436857E-2,1.221730490E-3
1.947378575E0,2.626720630E-2,-1.343903504E-2,1.695151068E-2
1.949486729E0,4.092797264E-2,-1.725694351E-2,2.412917651E-2
1.951581975E0,4.948008433E-2,-2.825251780E-2,3.023782931E-2
1.953691278E0,3.481931984E-2,-3.894266114E-2,3.390302137E-2
1.955810246E0,2.748893574E-2,-3.772092983E-2,2.916881628E-2
1.957918736E0,3.252857551E-2,1.664607786E-2,1.572977938E-2
1.960018244E0,3.619376570E-2,3.726277873E-2,2.290744567E-3
1.962122126E0,3.237585723E-2,-1.527163113E-4,-1.725694351E-2
1.964230503E0,1.145372353E-2,-1.084285788E-2,-4.031710699E-2
1.966340804E0,-1.634064503E-2,2.687807009E-2,-6.322455406E-2
1.968452112E0,-3.711006418E-2,3.680463135E-2,-8.261952549E-2
1.970570449E0,-3.604105115E-2,2.718350291E-2,-9.972374886E-2
1.972678614E0,-1.298088674E-2,1.603521220E-2,-1.108720452E-1
1.974784062E0,3.970623948E-3,1.954768784E-2,-1.159116775E-1
1.976881057E0,1.832595654E-2,1.221730490E-3,-1.244637966E-1
1.979000788E0,2.214386500E-2,3.634648025E-2,-1.550070494E-1
1.981109105E0,1.863138936E-2,1.053742543E-1,-1.878410578E-1
1.983220179E0,2.580905706E-2,9.575312585E-2,-2.025018334E-1
1.985326807E0,3.512475267E-2,1.817324013E-2,-2.124283910E-1
1.987438919E0,3.344487399E-2,-6.780604273E-2,-2.112066597E-1
1.989542821E0,3.573561832E-2,-1.017090604E-1,-2.040289938E-1
1.991653468E0,2.474004216E-2,-1.015563458E-1,-2.050980031E-1
1.993758520E0,5.650503561E-3,-2.641992271E-2,-2.134974003E-1
1.995866917E0,-2.443460934E-2,3.329215571E-2,-2.254092693E-1
1.997974339E0,-6.811147183E-2,5.543602258E-2,-2.324342281E-1
2.000083135E0,-8.994990587E-2,6.887505949E-2,-2.396118939E-1
2.002191452E0,-7.055493444E-2,8.567385375E-2,-2.532036304E-1
2.004299841E0,-1.847867295E-2,4.535674304E-2,-2.657263875E-1
2.006408148E0,3.573561832E-2,-3.023782931E-2,-2.733621895E-1
2.008516699E0,7.956519723E-2,-1.847867295E-2,-2.822197378E-1
2.010625362E0,8.613199741E-2,1.014036313E-1,-3.052799106E-1
2.012731410E0,5.482515693E-2,1.791362315E-1,-3.233004212E-1
2.014838414E0,2.290744707E-2,1.212567538E-1,-3.292563558E-1
2.016937281E0,2.901609987E-3,2.214386500E-2,-3.316998184E-1
2.019047115E0,1.954768784E-2,-5.054909736E-2,-3.233004212E-1
2.021153032E0,3.756821156E-2,-1.039998084E-1,-3.089450896E-1
2.023263912E0,5.222897977E-2,-9.437867999E-2,-2.918408811E-1
2.025372432E0,5.513058975E-2,-4.489859566E-2,-2.735149264E-1
2.027484380E0,5.681046844E-2,3.741549700E-2,-2.576324046E-1
2.029601813E0,4.963280261E-2,5.314527452E-2,-2.429716438E-1
2.031709459E0,4.092797264E-2,-7.330383174E-3,-2.295326144E-1
2.033817532E0,2.519819140E-2,-1.084285788E-2,-2.208277881E-1
2.035923458E0,-3.817907767E-3,2.336559631E-2,-2.243402600E-1
2.038031785E0,-3.909537569E-2,1.511891466E-2,-2.241875380E-1
2.040140194E0,-7.345654815E-2,-4.138612002E-2,-2.215913683E-1
2.042249091E0,-9.437867999E-2,-9.926560521E-2,-2.130392492E-1
2.044357489E0,-7.620543987E-2,-1.055269688E-1,-2.093740702E-1
2.046464738E0,-1.404990070E-2,-9.636399150E-2,-2.000583708E-1
2.048572995E0,5.268712714E-2,-1.067487001E-1,-1.919644028E-1
2.050681088E0,8.811730891E-2,-1.033889428E-1,-1.823432744E-1
2.052789456E0,6.398813426E-2,-6.444628537E-2,-1.760819107E-1
2.054897904E0,-1.970040426E-2,-3.344487399E-2,-1.754710376E-1
2.057006405E0,-1.010981947E-1,-8.552113548E-3,-1.786780804E-1
2.059114651E0,-1.117883399E-1,3.390302137E-2,-1.907426715E-1
2.061223965E0,-8.017606288E-2,4.459316283E-2,-1.957823038E-1
2.063328081E0,-1.603521220E-2,1.496619824E-2,-2.047925740E-1
2.065428981E0,6.032294407E-2,-1.954768784E-2,-2.186897546E-1
2.067546820E0,1.062905490E-1,-4.902193695E-2,-2.275473028E-1
2.069655158E0,1.035416573E-1,-1.107193232E-1,-2.287690341E-1
2.071764595E0,5.604688451E-2,-1.429424733E-1,-2.261728644E-1
2.073870450E0,1.130100712E-2,-9.056077152E-2,-2.220495194E-1
2.075979377E0,-1.634064503E-2,-3.100141138E-2,-2.182316035E-1
2.078089953E0,-3.191770986E-2,-1.267545391E-2,-2.168571651E-1
2.080197202E0,-2.825251780E-2,1.511891466E-2,-2.278527319E-1
2.082306180E0,-1.007927675E-2,-3.207042580E-3,-2.328923792E-1
2.084415280E0,6.108652451E-4,-4.810563847E-2,-2.367102802E-1
2.086531095E0,6.108652451E-4,-3.955352306E-2,-2.463314086E-1
2.088631559E0,-1.832595794E-3,-1.053742506E-2,-2.609921694E-1
2.090746407E0,4.276056774E-3,7.635815535E-3,-2.793181241E-1
2.092843961E0,1.023199316E-2,8.857546374E-3,-2.988658249E-1
2.094955502E0,3.084869497E-2,-5.955935922E-3,-3.112358451E-1
2.097060616E0,6.459899992E-2,-2.794708498E-2,-3.211624026E-1
2.099166888E0,7.788532227E-2,-4.260785133E-2,-3.310889602E-1
2.101262785E0,5.726861581E-2,-4.245513305E-2,-3.370448947E-1
2.103387368E0,2.199114859E-2,-4.092797264E-2,-3.391829133E-1
2.105495776E0,-5.955935922E-3,-4.062253982E-2,-3.402519524E-1
2.107606076E0,-7.177666761E-3,-3.100141138E-2,-3.500257730E-1
2.109704282E0,2.550362423E-2,-2.275473066E-2,-3.623957932E-1
2.111821400E0,7.040221989E-2,-4.489859566E-2,-3.712533414E-1
2.113928627E0,9.834930301E-2,-3.909537569E-2,-3.738495409E-1
2.116038949E0,1.044579595E-1,-2.947424725E-2,-3.701843321E-1
2.118142363E0,8.994990587E-2,-1.725694351E-2,-3.688098788E-1
2.120243142E0,7.437284291E-2,3.512475174E-3,-3.639229834E-1
2.122361724E0,5.360342562E-2,-1.572977938E-2,-3.576616049E-1
2.124469826E0,4.001167417E-2,-5.558873713E-2,-3.430008292E-1
2.126580900E0,3.161227703E-2,-6.276640296E-2,-3.271183372E-1
2.128687345E0,3.787364438E-2,-4.825835302E-2,-3.075706363E-1
2.130792082E0,4.657847434E-2,-4.352414981E-2,-2.832887471E-1
2.132892811E0,5.879577994E-2,-4.734205827E-2,-2.541199327E-1
2.135010934E0,6.872233748E-2,-4.627304152E-2,-2.186897546E-1
2.137119363E0,7.498370856E-2,-4.871650413E-2,-1.773036420E-1
2.139227629E0,7.651086897E-2,-3.787364438E-2,-1.432479024E-1
2.141321461E0,7.773260027E-2,-3.802636266E-2,-1.175915599E-1
2.143427438E0,8.017606288E-2,-5.497787148E-2,-9.682214260E-2
2.145552275E0,7.299839705E-2,-6.215553731E-2,-8.704829961E-2
2.147663421E0,5.833763257E-2,-6.200282276E-2,-7.727445662E-2
2.149774047E0,4.153883830E-2,-4.382958263E-2,-7.956519723E-2
2.151872090E0,3.069597855E-2,-1.343903504E-2,-7.941248268E-2
2.153962909E0,3.084869497E-2,5.955935922E-3,-7.819075137E-2
2.156080504E0,3.940080851E-2,9.468411095E-3,-7.330382615E-2
2.158189361E0,5.757404864E-2,-1.527163084E-3,-6.246097013E-2
2.160302571E0,7.086037099E-2,-3.313944116E-2,-4.428773001E-2
2.162407399E0,7.803803682E-2,-6.352998316E-2,-2.977968007E-2
2.164511555E0,7.941248268E-2,-7.086037099E-2,-1.023199316E-2
2.166637837E0,7.467827946E-2,-6.108652428E-2,8.093964309E-3
2.168745310E0,6.017022580E-2,-4.886921868E-2,2.031126991E-2
2.170855671E0,3.726277873E-2,-4.138612002E-2,3.145955876E-2
2.172957397E0,1.420261711E-2,-4.734205827E-2,4.627304152E-2
2.175059814E0,1.985311974E-3,-5.085453019E-2,4.993823543E-2
2.177176300E0,3.207042580E-3,-4.123340547E-2,4.871650413E-2
2.179285360E0,1.420261711E-2,-2.183843218E-2,3.894266114E-2
2.181394511E0,2.764165215E-2,-1.374446787E-3,2.672535367E-2
2.183500865E0,4.703662544E-2,-6.414085161E-3,2.046398632E-2
2.185611561E0,6.765332818E-2,-9.010262787E-3,1.175915636E-2
2.187728413E0,8.964447677E-2,1.740965992E-2,-7.788531948E-3
2.189825501E0,1.175915599E-1,5.589416996E-2,-2.626720630E-2
2.191933584E0,1.408044398E-1,7.024950534E-2,-4.337143153E-2
2.194039459E0,1.466076523E-1,3.756821156E-2,-5.451972410E-2
2.196149464E0,1.353066564E-1,-9.468411095E-3,-5.803219974E-2
2.198251475E0,1.133155003E-1,-3.588833287E-2,-5.314527452E-2
2.200366425E0,8.674286306E-2,-3.329215571E-2,-4.199698567E-2
2.202472972E0,6.490442902E-2,-3.069597855E-2,-3.573561832E-2
2.204583740E0,4.673119262E-2,-2.932153270E-2,-2.840523422E-2
2.206689260E0,3.573561832E-2,-2.443460934E-2,-2.092213556E-2
2.208790253E0,3.344487399E-2,-2.199114859E-2,-7.483099122E-3
2.210908610E0,3.359758854E-2,-1.114829071E-2,-2.596177394E-3
2.213017090E0,3.481931984E-2,-3.817907767E-3,-1.527163113E-4
2.215127116E0,3.848451003E-2,9.162978968E-4,5.955935922E-3
2.217233734E0,4.214970022E-2,5.803219974E-3,1.557706390E-2
2.219336284E0,4.352414981E-2,5.650503561E-3,3.023782931E-2
2.221431814E0,4.352414981E-2,-2.748893574E-3,4.978551716E-2
2.223557659E0,4.123340547E-2,-3.054326226E-4,6.444628537E-2
2.225665792E0,3.512475267E-2,-3.054326226E-4,7.299839705E-2
2.227778606E0,2.550362423E-2,4.581489135E-3,8.032877743E-2
2.229884442E0,1.588249579E-2,9.468411095E-3,8.048149943E-2
2.231995739E0,7.330383174E-3,1.328631863E-2,7.559457421E-2
2.234098634E0,-3.665191587E-3,1.206458826E-2,6.597344577E-2
2.236206696E0,-1.343903504E-2,1.221730467E-2,5.375614017E-2
2.238313844E0,-2.932153270E-2,1.603521220E-2,5.146539584E-2
2.240421032E0,-4.138612002E-2,1.725694351E-2,4.902193695E-2
2.242522280E0,-4.871650413E-2,1.007927675E-2,4.306599870E-2
2.244640442E0,-4.398229718E-2,1.007927675E-2,3.573561832E-2
2.246749248E0,-3.665191308E-2,2.458732575E-2,2.580905706E-2
2.248858878E0,-2.443460934E-2,3.649919853E-2,2.092213556E-2
2.250964835E0,-1.710422710E-2,4.138612002E-2,1.847867295E-2
2.253072604E0,-1.099557430E-2,4.123340547E-2,2.336559631E-2
2.255181449E0,-9.773843922E-3,4.367686436E-2,3.420845419E-2
2.257289420E0,-1.572977938E-2,4.245513305E-2,4.902193695E-2
2.259398795E0,-2.412917651E-2,4.382958263E-2,6.979135424E-2
2.261510022E0,-3.619376570E-2,4.505131021E-2,9.178250283E-2
2.263611381E0,-4.459316283E-2,4.505131021E-2,1.186605766E-1
2.265712068E0,-5.283984542E-2,4.749477282E-2,1.492038369E-1
2.267829602E0,-5.635231733E-2,5.360342562E-2,1.797471046E-1
2.269938926E0,-5.986479297E-2,5.726861581E-2,2.102903575E-1
2.272049543E0,-5.604688451E-2,5.482515693E-2,2.382374406E-1
2.274153616E0,-5.115996301E-2,4.978551716E-2,2.651155293E-1
2.276256502E0,-4.612032697E-2,3.527746722E-2,2.979495227E-1
2.278372113E0,-3.985895589E-2,2.550362423E-2,3.356704414E-1
2.280480888E0,-3.604105115E-2,2.901609987E-2,3.662137091E-1
2.282590284E0,-3.115412779E-2,2.046398632E-2,3.929390609E-1
2.284693463E0,-3.115412779E-2,9.621127509E-3,4.149302244E-1
2.286788149E0,-2.855795063E-2,9.468411095E-3,4.344778955E-1
2.288913200E0,-2.840523422E-2,1.679879427E-2,4.502076805E-1
2.291021100E0,-2.962696366E-2,2.275473066E-2,4.648684561E-1
2.293133619E0,-2.825251780E-2,2.519819140E-2,4.734205604E-1
2.295235354E0,-3.313944116E-2,3.008511290E-2,4.746423066E-1
2.297336713E0,-3.558290005E-2,2.519819140E-2,4.662429094E-1
2.299452182E0,-3.940080851E-2,3.512475174E-3,4.552473128E-1
2.301553846E0,-5.314527452E-2,-4.718934000E-2,4.442517459E-1
2.303673099E0,-6.795875728E-2,-7.971791178E-2,4.356996417E-1
2.305779126E0,-7.162395120E-2,-6.994406879E-2,4.260784984E-1
2.307889478E0,-5.925392732E-2,-2.779436857E-2,4.187481403E-1
2.309995547E0,-3.726277873E-2,1.206458826E-2,4.051563740E-1
2.312103875E0,-1.649336144E-2,2.886338346E-2,3.868304193E-1
2.314213056E0,3.054326226E-4,2.382374369E-2,3.671300113E-1
2.316320254E0,8.704829961E-3,1.649336144E-2,3.500257730E-1
2.318425937E0,9.773843922E-3,4.428773187E-3,3.329215646E-1
2.320526228E0,2.443460980E-3,-5.192354787E-3,3.255911767E-1
2.322645003E0,-6.108652335E-3,-9.926560335E-3,3.208569586E-1
2.324753360E0,-1.084285788E-2,1.191187184E-2,3.171917796E-1
2.326864180E0,-1.450804994E-2,2.290744707E-2,3.110831380E-1
2.328968062E0,-1.817324013E-2,2.046398632E-2,3.014619946E-1
2.331069655E0,-1.710422710E-2,1.435533352E-2,2.941316068E-1
2.333184665E0,-2.076941915E-2,1.450804994E-2,2.843577862E-1
2.335293246E0,-2.565634064E-2,2.061670274E-2,2.806925774E-1
2.337405012E0,-2.809980139E-2,2.306016348E-2,2.745839357E-1
2.339508864E0,-2.825251780E-2,1.450804994E-2,2.635883391E-1
2.341609593E0,-2.107485011E-2,-2.443460980E-3,2.538145185E-1
2.343727360E0,-1.267545391E-2,-1.817324013E-2,2.428189367E-1
2.345838342E0,-4.276056774E-3,-2.550362423E-2,2.257147133E-1
2.347954380E0,-5.650503561E-3,-3.161227703E-2,2.098322064E-1
2.350042464E0,-1.649336144E-2,-1.817324013E-2,2.037235647E-1
2.352159377E0,-2.611448988E-2,8.552113548E-3,1.965458989E-1
2.354255792E0,-3.573561832E-2,3.039054573E-2,1.942551434E-1
2.356379398E0,-3.940080851E-2,2.443460934E-2,1.893682331E-1
2.358484592E0,-4.566217586E-2,1.725694351E-2,1.808161139E-1
2.360595240E0,-4.795292020E-2,3.176499158E-2,1.808161139E-1
2.362699946E0,-4.550946131E-2,4.871650413E-2,1.820378453E-1
2.364803328E0,-3.940080851E-2,5.467243865E-2,1.795943826E-1
2.366918410E0,-3.344487399E-2,3.894266114E-2,1.734857261E-1
2.369026503E0,-2.977968007E-2,2.199114859E-2,1.710422635E-1
2.371136408E0,-3.237585723E-2,8.704829961E-3,1.588249654E-1
2.373242213E0,-3.848451003E-2,2.596177394E-3,1.514945775E-1
2.375348698E0,-4.703662544E-2,9.926560335E-3,1.490511149E-1
2.377459487E0,-6.398813426E-2,1.985312067E-2,1.455386430E-1
2.379567906E0,-6.750060618E-2,3.802636266E-2,1.516472995E-1
2.381677567E0,-5.406157300E-2,5.360342562E-2,1.553124934E-1
2.383784012E0,-3.955352306E-2,4.382958263E-2,1.588249654E-1
2.385891677E0,-3.100141138E-2,3.527746722E-2,1.624901593E-1
2.388000503E0,-3.466660157E-2,2.809980139E-2,1.600466967E-1
2.390108617E0,-3.726277873E-2,2.076941915E-2,1.588249654E-1
2.392215663E0,-3.604105115E-2,9.926560335E-3,1.563815027E-1
2.394323888E0,-3.970624134E-2,1.359175146E-2,1.588249654E-1
2.396430456E0,-5.054909736E-2,1.007927675E-2,1.612684280E-1
2.398533340E0,-5.665775016E-2,1.847867295E-2,1.638645977E-1
2.400650538E0,-5.528330430E-2,3.298672289E-2,1.699732542E-1
2.402758378E0,-5.283984542E-2,4.627304152E-2,1.748601794E-1
2.404868677E0,-5.406157300E-2,4.276056588E-2,1.773036420E-1
2.406972244E0,-4.795292020E-2,3.665191308E-2,1.795943826E-1
2.409073024E0,-3.955352306E-2,2.199114859E-2,1.795943826E-1
2.411191493E0,-3.222314268E-2,6.261368748E-3,1.831068546E-1
2.413300044E0,-3.588833287E-2,-5.955935922E-3,1.977676302E-1
2.415411412E0,-3.817907721E-2,1.954768784E-2,2.148718536E-1
2.417513830E0,-3.787364438E-2,5.345070735E-2,2.284636050E-1
2.419615668E0,-3.665191308E-2,3.527746722E-2,2.356412709E-1
2.421732244E0,-3.451388702E-2,-3.512475174E-3,2.356412709E-1
2.423840857E0,-3.084869497E-2,-7.177666761E-3,2.356412709E-1
2.425951268E0,-3.313944116E-2,1.939497143E-2,2.393064648E-1
2.428060258E0,-5.009094998E-2,4.260785133E-2,2.419026345E-1
2.430177272E0,-6.704246253E-2,4.642575979E-2,2.419026345E-1
2.432274858E0,-7.574728876E-2,2.825251780E-2,2.322815061E-1
2.434382014E0,-6.734789163E-2,1.007927675E-2,2.223549485E-1
2.436487402E0,-4.444044828E-2,-1.069014147E-2,2.064724565E-1
2.438598364E0,-1.053742506E-2,-1.343903504E-2,1.927279830E-1
2.440702826E0,9.162978269E-3,1.313360315E-2,1.915062517E-1
2.442799414E0,-3.054326167E-3,9.621127509E-3,1.927279830E-1
2.444923580E0,-2.367102914E-2,-3.512475174E-3,2.026545405E-1
2.447031938E0,-3.711006418E-2,-2.290744567E-3,2.087631971E-1
2.449145087E0,-4.566217586E-2,-8.246680722E-3,2.101376504E-1
2.451243262E0,-4.077525437E-2,-2.153299935E-2,2.112066597E-1
2.453337541E0,-3.237585723E-2,-3.985895589E-2,2.136501223E-1
2.455464097E0,-2.626720630E-2,-3.145955876E-2,2.148718536E-1
2.457572740E0,-1.740965992E-2,1.939497143E-2,2.197587788E-1
2.459685258E0,-1.527163084E-3,3.375030309E-2,2.208277881E-1
2.461787614E0,4.428773187E-3,1.435533352E-2,2.183843255E-1
2.463896105E0,-9.010262787E-3,-1.374446787E-3,2.183843255E-1
2.466005530E0,-1.634064503E-2,2.443460980E-3,2.196060568E-1
2.468114336E0,-1.970040426E-2,3.634648025E-2,2.319760770E-1
2.470222480E0,-1.374446787E-3,4.825835302E-2,2.391537428E-1
2.472326433E0,1.298088674E-2,2.031126991E-2,2.402227521E-1
2.474422736E0,1.175915636E-2,3.359758761E-3,2.426662147E-1
2.476547024E0,-2.107485011E-2,-0.000000000E0,2.440406680E-1
2.478655260E0,-3.313944116E-2,1.939497143E-2,2.466368377E-1
2.480767656E0,-9.773843922E-3,6.887505949E-2,2.538145185E-1
2.482872586E0,-1.221730490E-3,7.238753140E-2,2.587014437E-1
2.484977637E0,-2.687807009E-2,3.634648025E-2,2.625193298E-1
2.487079160E0,-5.131268129E-2,3.817907767E-3,2.698497176E-1
2.489194282E0,-5.742133409E-2,-5.803219974E-3,2.710714638E-1
2.491296883E0,-4.413501546E-2,-2.519819140E-2,2.771801054E-1
2.493415159E0,-1.359175146E-2,-1.221730467E-2,2.878702581E-1
2.495518613E0,1.664607786E-2,-2.825251780E-2,2.901609838E-1
2.497621284E0,5.787948146E-2,-4.428773001E-2,2.874121070E-1
2.499738737E0,9.544769675E-2,-5.803219974E-2,2.835941911E-1
2.501845884E0,1.099557430E-1,-6.780604273E-2,2.809980214E-1
2.503956825E0,8.933904022E-2,-5.665775016E-2,2.762638032E-1
2.506060615E0,1.557706390E-2,9.315694682E-3,2.780964077E-1
2.508164528E0,-6.536258012E-2,9.712757170E-2,2.809980214E-1
2.510279020E0,-9.926560521E-2,1.252273768E-1,2.764165103E-1
2.512387043E0,-6.780604273E-2,8.750644326E-2,2.712241709E-1
2.514497180E0,5.955935922E-3,3.237585723E-2,2.634356320E-1
2.516604673E0,7.360926270E-2,-1.786780916E-2,2.519819140E-1
2.518711962E0,1.099557430E-1,-3.863722831E-2,2.469422817E-1
2.520817706E0,1.038470939E-1,-4.230241850E-2,2.457205504E-1
2.522917906E0,6.368270516E-2,-4.917465150E-2,2.399173230E-1
2.525033293E0,4.123340361E-3,-4.016438872E-2,2.328923792E-1
2.527132474E0,-5.406157300E-2,-2.031126991E-2,2.260201424E-1
2.529243112E0,-9.300423414E-2,-6.108652451E-4,2.176207453E-1
2.531351673E0,-1.085812971E-1,3.100141138E-2,2.141082734E-1
2.533473448E0,-1.024726480E-1,3.466660157E-2,2.141082734E-1
2.535580422E0,-7.574728876E-2,4.169155285E-2,2.151772827E-1
2.537688688E0,-4.520402849E-2,4.382958263E-2,2.235766798E-1
2.539794005E0,-2.107485011E-2,2.412917651E-2,2.307543457E-1
2.541902485E0,-6.108652451E-4,-1.954768784E-2,2.328923792E-1
2.544010893E0,1.374446787E-2,-5.955936015E-2,2.292271852E-1
2.546119516E0,2.229658142E-2,-7.299839705E-2,2.302961946E-1
2.548227629E0,8.857546374E-3,-8.139779419E-2,2.390010208E-1
2.550337197E0,-2.519819140E-2,-8.827003092E-2,2.513710558E-1
2.552446166E0,-6.612616032E-2,-4.566217586E-2,2.651155293E-1
2.554553098E0,-7.666359097E-2,3.313944116E-2,2.797762752E-1
2.556660033E0,-5.222897977E-2,4.382958263E-2,2.832887471E-1
2.558768066E0,-1.374446787E-3,1.069014147E-2,2.805398703E-1
2.560876566E0,4.948008433E-2,-2.611448988E-2,2.680171132E-1
2.562982513E0,8.933904022E-2,-3.970624134E-2,2.507601976E-1
2.565083586E0,7.849618047E-2,-2.260201424E-2,2.360994220E-1
2.567202554E0,4.199698567E-2,1.832595794E-3,2.168571651E-1
2.569309793E0,-5.192354787E-3,5.314527452E-2,1.977676302E-1
2.571420511E0,-4.642575979E-2,8.261952549E-2,1.760819107E-1
2.573523569E0,-5.635231733E-2,7.666359097E-2,1.479821056E-1
2.575624643E0,-6.780604273E-2,1.618792862E-2,1.273654103E-1
2.577742777E0,-5.849034712E-2,-4.795292020E-2,1.174388453E-1
2.579850117E0,-3.909537569E-2,-6.261368841E-2,1.246165112E-1
2.581957998E0,-1.221730490E-3,-5.696318299E-2,1.365283877E-1
2.584065164E0,3.176499158E-2,-2.947424725E-2,1.534798890E-1
2.586167175E0,4.795292020E-2,2.122756653E-2,1.766927689E-1
2.588284983E0,3.359758854E-2,3.955352306E-2,1.974621862E-1
2.590392262E0,1.832595794E-3,1.069014147E-2,2.073887438E-1
2.592502604E0,-2.641992271E-2,-5.558873713E-2,2.050980031E-1
2.594608673E0,-3.756821156E-2,-7.605272532E-2,2.014328092E-1
2.596716868E0,-2.871066704E-2,-1.557706390E-2,2.063197345E-1
2.598825694E0,-8.857546374E-3,3.985895589E-2,2.014328092E-1
2.600934407E0,-7.788531948E-3,3.985895589E-2,1.892155111E-1
2.603041717E0,-1.053742506E-2,7.177666761E-3,1.647808999E-1
2.605149912E0,-2.275473066E-2,4.886921961E-3,1.429424733E-1
2.607258046E0,-3.481931984E-2,5.222897977E-2,1.198823079E-1
2.609364573E0,-5.192354694E-2,6.704246253E-2,8.704829961E-2
2.611466940E0,-5.833763257E-2,3.924809024E-2,5.772676691E-2
2.613582968E0,-5.726861581E-2,1.511891466E-2,3.084869497E-2
2.615691477E0,-3.543018550E-2,1.970040426E-2,1.740965992E-2
2.617799937E0,-8.857546374E-3,2.596177394E-3,8.552113548E-3
2.619897726E0,5.803219974E-3,3.023782931E-2,-2.443460980E-3
2.622016979E0,5.650503561E-3,1.939497143E-2,-1.710422710E-2
2.624123922E0,-2.138028294E-2,-2.626720630E-2,-3.772092983E-2
2.626234986E0,-5.436700583E-2,-3.695734590E-2,-4.963280261E-2
2.628339367E0,-6.246097013E-2,3.940080851E-2,-4.352414981E-2
2.630444743E0,-2.672535367E-2,1.250746548E-1,-3.497203439E-2
2.632557384E0,1.710422710E-2,1.185078546E-1,-3.894266114E-2
2.634666413E0,5.177082866E-2,4.688390717E-2,-5.024366826E-2
2.636774862E0,7.559457421E-2,-4.291328415E-2,-6.261368841E-2
2.638881135E0,7.773260027E-2,-8.765916526E-2,-6.643159688E-2
2.640981202E0,5.253441259E-2,-3.543018550E-2,-5.757404864E-2
2.643081656E0,1.511891466E-2,1.450804994E-2,-5.253441259E-2
2.645206869E0,-2.244929783E-2,2.703078650E-2,-5.711590126E-2
2.647316010E0,-5.528330430E-2,2.962696366E-2,-5.451972410E-2
2.649426454E0,-6.383541971E-2,2.367102914E-2,-4.963280261E-2
2.651523032E0,-3.695734590E-2,2.107485011E-2,-4.612032697E-2
2.653619071E0,-1.023199316E-2,3.527746722E-2,-4.260785133E-2
2.655738078E0,3.359758761E-3,5.329799280E-2,-3.649919853E-2
2.657857057E0,4.428773187E-3,3.512475267E-2,-4.016438872E-2
2.659968813E0,-2.748893574E-2,-1.771509275E-2,-5.345070735E-2
2.662073692E0,-5.192354694E-2,-3.084869497E-2,-6.307183951E-2
2.664176068E0,-3.848451003E-2,-4.428773187E-3,-6.444628537E-2
2.666289358E0,-7.788531948E-3,5.467243865E-2,-6.688974798E-2
2.668398489E0,2.626720630E-2,6.520986557E-2,-6.841690838E-2
2.670506767E0,4.337143153E-2,6.750060618E-2,-6.963863969E-2
2.672613049E0,4.550946131E-2,2.153299935E-2,-7.101308554E-2
2.674718894E0,3.543018550E-2,-4.367686436E-2,-6.734789163E-2
2.676830466E0,3.069597855E-2,-4.001167417E-2,-6.001751125E-2
2.678938468E0,2.031126991E-2,-8.231408894E-2,-1.380555481E-1
2.681047579E0,2.611448988E-2,-9.911288321E-2,-1.869247705E-1
2.683155235E0,4.321871698E-2,-4.123340547E-2,-2.052507252E-1
2.685264254E0,5.879577994E-2,9.407325089E-2,-1.576032341E-1
2.687371686E0,3.802636266E-2,2.018909603E-1,-7.925976813E-2
2.689478427E0,-1.542434748E-2,1.539380401E-1,-1.802052557E-2
2.691578107E0,-3.878994286E-2,6.933320314E-2,2.718350291E-2
2.693696332E0,-3.039054573E-2,4.138612002E-2,5.024366826E-2
2.695807253E0,-1.710422710E-2,2.443460934E-2,5.253441259E-2
2.697927167E0,2.290744567E-3,1.084285788E-2,3.787364438E-2
2.700021436E0,-7.024950348E-3,-6.994406879E-2,-4.153883830E-2
2.702130171E0,-1.374446787E-3,-8.811730891E-2,-9.025534242E-2
2.704234489E0,-1.863138936E-2,-8.918632567E-2,-1.426370293E-1
2.706343183E0,-2.703078650E-2,-3.100141138E-2,-1.730275750E-1
2.708443840E0,-7.024950348E-3,6.200282276E-2,-1.620320082E-1
2.710561933E0,-2.550362423E-2,2.474004216E-2,-1.828014255E-1
2.712668827E0,-7.024950348E-3,4.138612002E-2,-1.524108797E-1
2.714780062E0,2.122756653E-2,6.902777404E-2,-1.049161032E-1
2.716887454E0,2.733621933E-2,2.779436857E-2,-8.063421398E-2
2.718996564E0,-1.343903504E-2,-5.177082866E-2,-1.096503139E-1
2.721101424E0,-7.834346592E-2,-7.773260027E-2,-1.751656085E-1
2.723201684E0,-7.040221989E-2,4.321871698E-2,-1.837177277E-1
2.725319685E0,-4.856378585E-2,4.795292020E-2,-2.057088763E-1
2.727426313E0,-3.817907721E-2,-2.229658142E-2,-2.302961946E-1
2.729528894E0,-2.733621933E-2,-5.024366826E-2,-2.267837226E-1
2.731634728E0,-1.634064503E-2,-5.528330430E-2,-2.170098722E-1
2.733751112E0,-1.023199316E-2,-4.810563847E-2,-1.902845204E-1
2.735853030E0,-3.665191587E-3,-1.069014147E-2,-1.487456858E-1
2.737959933E0,1.863138936E-2,3.878994286E-2,-1.183551401E-1
2.740066348E0,3.833179548E-2,5.192354694E-2,-9.651670605E-2
2.742179722E0,3.695734590E-2,3.008511290E-2,-8.429940045E-2
2.744298292E0,1.985312067E-2,2.306016348E-2,-8.903361112E-2
2.746405195E0,1.725694351E-2,2.443460980E-3,-1.146899462E-1
2.748512923E0,2.779436857E-2,-4.841107130E-2,-1.368338168E-1
2.750618819E0,2.153299935E-2,-7.009678334E-2,-1.550070494E-1
2.752726994E0,5.803219974E-3,-4.214970022E-2,-1.672243625E-1
2.754835808E0,-2.596177347E-2,-4.062253982E-2,-1.864666194E-1
2.756944533E0,-4.902193695E-2,-2.718350291E-2,-1.985312104E-1
2.759051996E0,-6.215553731E-2,2.504547499E-2,-2.191479057E-1
2.761157526E0,-6.337726861E-2,5.543602258E-2,-2.385428846E-1
2.763257959E0,-4.780020565E-2,3.466660157E-2,-2.619084716E-1
2.765376783E0,-3.802636266E-2,4.673119262E-2,-2.863430977E-1
2.767485132E0,-7.788531948E-3,5.742133409E-2,-3.145956099E-1
2.769596664E0,1.863138936E-2,1.237002108E-2,-3.379611969E-1
2.771701227E0,3.634648025E-2,-5.314527452E-2,-3.564398587E-1
2.773809615E0,3.023782931E-2,-6.032294407E-2,-3.685044646E-1
2.775917545E0,1.924225502E-2,-5.650503561E-2,-3.733913898E-1
2.778026046E0,1.557706390E-2,-5.772676691E-2,-3.807217777E-1
2.780134028E0,1.328631863E-2,-4.688390717E-2,-3.770565689E-1
2.782240931E0,2.443460980E-3,-4.306599870E-2,-3.573561609E-1
2.784348749E0,-1.572977938E-2,-4.902193695E-2,-3.329215646E-1
2.786455500E0,-1.435533352E-2,-3.940080851E-2,-3.084869385E-1
2.788567713E0,9.010262787E-3,-2.138028387E-3,-2.829833329E-1
2.790675919E0,4.001167417E-2,7.269296050E-2,-2.562579811E-1
2.792784653E0,4.505131021E-2,8.827003092E-2,-2.464841306E-1
2.794888168E0,2.519819140E-2,4.245513305E-2,-2.513710558E-1
2.796984614E0,-1.863138936E-2,1.267545391E-2,-2.608394623E-1
2.799108709E0,-7.360926270E-2,-9.926560335E-3,-2.751947939E-1
2.801216995E0,-9.560041130E-2,-2.183843218E-2,-2.799290121E-1
2.803329941E0,-4.566217586E-2,-1.007927675E-2,-2.777909636E-1
2.805433344E0,4.062253982E-2,-2.168571576E-2,-2.794708610E-1
2.807541468E0,8.918632567E-2,-1.970040426E-2,-2.724458873E-1
2.809649622E0,7.116580009E-2,3.359758761E-3,-2.590068579E-1
2.811757909E0,2.764165215E-2,3.283400834E-2,-2.477058619E-1
2.813866257E0,-9.926560335E-3,4.153883830E-2,-2.377792895E-1
2.815974512E0,-3.802636266E-2,2.855795063E-2,-2.435825169E-1
2.818083034E0,-6.612616032E-2,4.581489135E-3,-2.448042482E-1
2.820192134E0,-7.238753140E-2,-2.809980139E-2,-2.423607856E-1
2.822299556E0,-4.673119262E-2,-1.740965992E-2,-2.290744632E-1
2.824408595E0,-1.221730490E-3,2.336559631E-2,-1.962404549E-1
2.826515488E0,3.420845419E-2,3.619376570E-2,-1.574505121E-1
2.828621445E0,4.153883830E-2,1.069014147E-2,-1.282816976E-1
2.830721787E0,2.336559631E-2,3.665191587E-3,-9.773843735E-2
2.832840501E0,3.054326167E-3,3.039054573E-2,-7.315111160E-2
2.834949234E0,-1.160643995E-2,3.054326226E-4,-6.093380973E-2
2.837061000E0,-1.786780916E-2,-1.908953860E-2,-4.871650413E-2
2.839165411E0,-1.267545391E-2,5.039638374E-3,-2.794708498E-2
2.841273718E0,1.924225502E-2,4.825835302E-2,-3.665191587E-3
2.843379787E0,2.061670274E-2,3.252857551E-2,2.550362423E-2
2.845488765E0,5.803219974E-3,-2.183843218E-2,5.360342562E-2
2.847598343E0,-9.926560335E-3,-3.863722831E-2,8.659014851E-2
2.849704403E0,-1.084285788E-2,-2.779436857E-2,1.195768714E-1
2.851805742E0,-9.315694682E-3,-2.443460980E-3,1.562287807E-1
2.853923987E0,-1.771509275E-2,-0.000000000E0,1.843285859E-1
2.856031226E0,-1.160643995E-2,-1.450804994E-2,2.073887438E-1
2.858141852E0,-4.123340361E-3,-1.527163113E-4,2.269364446E-1
2.860247393E0,-6.566801574E-3,4.734205548E-3,2.367102802E-1
2.862355008E0,-1.985312067E-2,4.886921961E-3,2.428189367E-1
2.864461035E0,-2.474004216E-2,-3.665191587E-3,2.393064648E-1
2.866572628E0,-2.626720630E-2,-3.390302137E-2,2.258674204E-1
2.868681077E0,-1.557706390E-2,-7.024950534E-2,2.122756690E-1
2.870790849E0,-4.428773187E-3,-5.451972410E-2,2.147191316E-1
2.872894630E0,-1.649336144E-2,-3.145955876E-2,2.232712507E-1
2.874995490E0,-1.649336144E-2,-3.512475267E-2,2.318233550E-1
2.877113430E0,-5.650503561E-3,-5.940664560E-2,2.341141105E-1
2.879219398E0,3.970623948E-3,-7.162395120E-2,2.316706479E-1
2.881322426E0,1.863138936E-2,-6.322455406E-2,2.267837226E-1
2.883436440E0,3.207042441E-2,-3.436116874E-2,2.131919712E-1
2.885539394E0,4.780020565E-2,-3.451388702E-2,1.936442852E-1
2.887658596E0,4.520402849E-2,-2.962696366E-2,1.716531366E-1
2.889763496E0,2.092213556E-2,-1.970040426E-2,1.450804919E-1
2.891874193E0,0.000000000E0,-4.245513305E-2,1.146899462E-1
2.893979245E0,-2.901609987E-3,-7.254024595E-2,8.048149943E-2
2.896087765E0,7.941247895E-3,-5.940664560E-2,4.749477282E-2
2.898195910E0,2.748893574E-2,-3.527746722E-2,2.061670274E-2
2.900304095E0,3.115412779E-2,-1.114829071E-2,-1.374446787E-3
2.902409899E0,2.504547499E-2,3.512475174E-3,-2.565634064E-2
2.904514889E0,2.367102914E-2,4.734205548E-3,-5.009094998E-2
2.906629574E0,2.947424725E-2,-2.306016348E-2,-6.841690838E-2
2.908737831E0,2.290744567E-3,-7.727445662E-2,-8.903361112E-2
2.910847094E0,-2.458732575E-2,-9.162978828E-2,-1.072068512E-1
2.912953652E0,-2.794708498E-2,-4.673119262E-2,-1.157589629E-1
2.915062080E0,-2.672535367E-2,-2.138028294E-2,-1.218676195E-1
2.917168343E0,-2.061670274E-2,-1.893682219E-2,-1.218676195E-1
2.919270678E0,-7.330383174E-3,-2.871066704E-2,-1.243110746E-1
2.921387866E0,8.399397135E-3,-3.375030309E-2,-1.281289905E-1
2.923495227E0,1.572977938E-2,-3.985895589E-2,-1.342376322E-1
2.925605467E0,5.803219974E-3,-5.665775016E-2,-1.440114826E-1
2.927708189E0,-1.863138936E-2,-7.590000331E-2,-1.572978050E-1
2.929804615E0,-4.184427112E-2,-7.559457421E-2,-1.669189334E-1
2.931915576E0,-4.413501546E-2,-5.864306539E-2,-1.742493063E-1
2.934023862E0,-3.313944116E-2,-4.780020565E-2,-1.815796942E-1
2.936137876E0,-1.725694351E-2,-3.466660157E-2,-1.803579628E-1
2.938254199E0,-1.374446787E-3,-2.153299935E-2,-1.731802970E-1
2.940350747E0,4.734205548E-3,-1.557706390E-2,-1.731802970E-1
2.942462218E0,5.955935922E-3,-1.435533352E-2,-1.756237596E-1
2.944577187E0,1.450804994E-2,8.552113548E-3,-1.744020283E-1
2.946685789E0,2.306016348E-2,1.695151068E-2,-1.745547503E-1
2.948786335E0,9.621127509E-3,-4.581489135E-3,-1.841758788E-1
2.950900053E0,-1.374446787E-2,-2.626720630E-2,-1.962404549E-1
2.953001759E0,-3.451388702E-2,-3.451388702E-2,-2.034181207E-1
2.955122334E0,-4.291328415E-2,-2.107485011E-2,-2.046398520E-1
2.957227253E0,-3.298672289E-2,4.276056774E-3,-2.009746730E-1
2.959335672E0,-1.710422710E-2,6.566801574E-3,-1.925752759E-1
2.961429432E0,-2.596177394E-3,-5.803219974E-3,-1.829541475E-1
2.963543710E0,9.621127509E-3,-7.024950348E-3,-1.695151031E-1
2.965659656E0,1.221730467E-2,-3.512475174E-3,-1.537853181E-1
2.967771189E0,4.886921961E-3,-1.313360315E-2,-1.463022232E-1
2.969878397E0,-6.108652335E-3,-1.786780916E-2,-1.340849251E-1
2.971981933E0,-9.621127509E-3,-1.542434748E-2,-1.157589629E-1
2.974082304E0,-5.803219974E-3,-4.581489135E-3,-1.035416573E-1
2.976200163E0,-7.024950348E-3,-3.359758761E-3,-9.636399150E-2
2.978309610E0,-9.468411095E-3,-9.468411095E-3,-9.147707373E-2
2.980420308E0,-1.069014147E-2,-2.153299935E-2,-8.903361112E-2
2.982526082E0,-4.581489135E-3,-9.468411095E-3,-8.414668590E-2
2.984634165E0,1.527163084E-3,-1.069014147E-2,-7.681630552E-2
2.986742726E0,2.748893574E-3,-1.679879427E-2,-7.437284291E-2
2.988851694E0,3.054326226E-4,-1.679879427E-2,-7.192938030E-2
2.990958923E0,-3.359758761E-3,-1.802052557E-2,-7.192938030E-2
2.993067149E0,-4.581489135E-3,-2.031126991E-2,-7.070764899E-2
2.995172617E0,-4.581489135E-3,-2.275473066E-2,-6.704246253E-2
2.997273396E0,-3.207042580E-3,-1.924225502E-2,-5.726861581E-2
2.999394419E0,-1.985311974E-3,-1.191187184E-2,-4.871650413E-2
3.001509929E0,-7.635815418E-4,-1.313360315E-2,-3.772092983E-2
3.003611481E0,6.108652451E-4,-1.679879427E-2,-2.443460934E-2
3.005719899E0,-6.108652451E-4,-1.328631863E-2,-1.343903504E-2
3.007831644E0,-4.581489484E-4,-5.955935922E-3,-3.665191587E-3
3.009933177E0,1.985311974E-3,-2.290744567E-3,0.000000000E0
3.012041128E0,4.428773187E-3,-3.665191587E-3,-1.221730490E-3
3.014147409E0,1.985311974E-3,-8.399397135E-3,2.443460980E-3
3.016255412E0,1.985311974E-3,-5.955935922E-3,4.886921961E-3
3.018353556E0,1.985311974E-3,-2.443460980E-3,4.886921961E-3
3.020462078E0,1.985311974E-3,-5.955935922E-3,3.665191587E-3
3.022571137E0,5.650503561E-3,-1.084285788E-2,0.000000000E0
3.024681223E0,4.276056774E-3,-1.572977938E-2,1.221730490E-3
3.026790334E0,4.276056774E-3,-1.695151068E-2,0.000000000E0
3.028898143E0,4.276056774E-3,-1.695151068E-2,0.000000000E0
3.031005514E0,4.276056774E-3,-1.939497143E-2,-3.665191587E-3
3.033113760E0,4.276056774E-3,-2.046398632E-2,-1.221730490E-3
3.035224599E0,5.497787148E-3,-2.168571576E-2,-3.665191587E-3
3.037343496E0,5.497787148E-3,-2.412917651E-2,-6.108652335E-3
3.039449494E0,5.497787148E-3,-2.779436857E-2,-4.886921961E-3
3.041548921E0,4.276056774E-3,-2.657263726E-2,-6.108652335E-3
3.043664898E0,4.276056774E-3,-2.657263726E-2,-9.773843922E-3
3.045773123E0,4.276056774E-3,-2.168571576E-2,-9.773843922E-3
3.047884177E0,3.054326167E-3,-1.695151068E-2,-1.466076635E-2
3.049987438E0,1.832595794E-3,-1.084285788E-2,-1.832595654E-2
3.052088198E0,6.108652451E-4,-9.621127509E-3,-1.954768784E-2
3.054206798E0,6.108652451E-4,-1.206458826E-2,-2.321287990E-2
3.056315634E0,-1.832595794E-3,-2.046398632E-2,-2.076941915E-2
3.058425253E0,-6.108652451E-4,-1.557706390E-2,-1.588249579E-2
3.060526094E0,1.832595794E-3,-7.177666761E-3,-1.588249579E-2
3.062619671E0,4.276056774E-3,-1.206458826E-2,-1.099557430E-2
3.064747580E0,9.162978269E-3,-1.817324013E-2,-4.886921961E-3
3.066855785E0,9.162978269E-3,-1.817324013E-2,3.665191587E-3
3.068968843E0,1.298088674E-2,-1.817324013E-2,1.450804994E-2
3.071072471E0,1.664607786E-2,-8.552113548E-3,2.061670274E-2
3.073181490E0,1.802052557E-2,8.399397135E-3,2.550362423E-2
3.075288901E0,1.557706390E-2,1.435533352E-2,3.405573592E-2
3.077397096E0,9.468411095E-3,7.177666761E-3,3.772092983E-2
3.079502575E0,5.803219974E-3,-6.108652335E-3,2.687807009E-2
3.081603467E0,4.428773187E-3,-4.886921961E-3,1.588249579E-2
3.083721611E0,8.093964309E-3,2.443460980E-3,1.221730490E-3
3.085829592E0,1.527163107E-2,2.443460980E-3,-1.099557430E-2
3.087941307E0,2.138028294E-2,3.512475174E-3,-2.199114859E-2
3.090047528E0,2.015855350E-2,4.734205548E-3,-3.298672289E-2
3.092154991E0,1.756237634E-2,7.177666761E-3,-4.398229718E-2
3.094263125E0,1.267545391E-2,-1.221730490E-3,-5.375614017E-2
3.096368187E0,9.010262787E-3,4.886921961E-3,-6.337726861E-2
3.098479576E0,4.123340361E-3,9.773843922E-3,-7.315111160E-2
3.100587140E0,5.345070735E-3,1.221730467E-2,-7.925976813E-2
3.102694999E0,5.192354787E-3,1.466076635E-2,-9.147707373E-2
3.104803214E0,1.130100712E-2,1.466076635E-2,-1.122464910E-1
3.106913414E0,2.214386500E-2,1.695151068E-2,-1.293507218E-1
3.109021090E0,3.909537569E-2,3.375030309E-2,-1.452332139E-1
3.111129153E0,4.398229718E-2,4.581489414E-2,-1.502728462E-1
3.113236982E0,2.932153270E-2,2.061670274E-2,-1.537853181E-1
3.115345441E0,2.443460980E-3,-2.138028387E-3,-1.585195363E-1
3.117453647E0,-2.428189293E-2,1.679879380E-3,-1.608102769E-1
3.119562004E0,-2.779436857E-2,2.840523422E-2,-1.608102769E-1
3.121670322E0,-1.679879427E-2,5.009094998E-2,-1.669189334E-1
3.123779504E0,-1.069014193E-3,4.260785133E-2,-1.719585657E-1
3.125886620E0,9.926560335E-3,4.016438872E-2,-1.731802970E-1
3.127990949E0,1.832595654E-2,4.612032697E-2,-1.768454909E-1
3.130084649E0,2.443460934E-2,4.718934000E-2,-1.780672222E-1
3.132198805E0,3.405573592E-2,3.023782931E-2,-1.769981980E-1
3.134307030E0,3.772092983E-2,1.328631863E-2,-1.721112877E-1
3.136419690E0,3.405573592E-2,1.572977938E-2,-1.660026312E-1
3.138528557E0,2.565634064E-2,1.817324013E-2,-1.586722434E-1
3.140646203E0,8.552113548E-3,8.704829961E-3,-1.427897513E-1
3.142754999E0,-7.177666761E-3,9.926560335E-3,-1.340849251E-1
3.144863335E0,-1.313360315E-2,2.214386500E-2,-1.267545372E-1
3.146969241E0,-1.175915636E-2,3.543018550E-2,-1.182024255E-1
3.149072554E0,-5.650503561E-3,4.138612002E-2,-1.096503139E-1
3.151164666E0,-4.428773187E-3,4.505131021E-2,-1.059851199E-1
3.153284825E0,-7.635815418E-4,3.039054573E-2,-1.023199260E-1
3.155402571E0,2.748893574E-3,1.588249579E-2,-1.049161032E-1
3.157515985E0,3.970623948E-3,1.588249579E-2,-1.110247597E-1
3.159620721E0,-3.359758761E-3,2.199114859E-2,-1.096503139E-1
3.161726231E0,-8.246680722E-3,1.847867295E-2,-1.108720452E-1
3.163833287E0,-1.298088674E-2,2.932153270E-2,-1.157589629E-1
3.165942121E0,-2.260201424E-2,4.886921868E-2,-1.217148975E-1
3.168051721E0,-2.626720630E-2,6.093380973E-2,-1.351539344E-1
3.170160181E0,-2.764165215E-2,5.619960278E-2,-1.461495161E-1
3.172266311E0,-3.008511290E-2,4.291328415E-2,-1.534798890E-1
3.174367140E0,-3.023782931E-2,4.291328415E-2,-1.595885456E-1
3.176484684E0,-3.619376570E-2,5.024366826E-2,-1.631010175E-1
3.178592737E0,-3.985895589E-2,4.291328415E-2,-1.606575549E-1
3.180703292E0,-3.741549700E-2,4.291328415E-2,-1.594358236E-1
3.182809087E0,-2.657263726E-2,5.253441259E-2,-1.632537395E-1
3.184917454E0,-9.468411095E-3,5.726861581E-2,-1.656972021E-1
3.187025914E0,2.748893574E-3,6.673702598E-2,-1.658499092E-1
3.189134363E0,6.566801574E-3,8.613199741E-2,-1.609629989E-1
3.191243372E0,4.123340361E-3,8.002334833E-2,-1.536326110E-1
3.193352706E0,4.581489484E-4,6.918048859E-2,-1.450804919E-1
3.195467748E0,3.054326226E-4,4.978551716E-2,-1.353066564E-1
3.197566726E0,-4.428773187E-3,4.749477282E-2,-1.291979998E-1
3.199675217E0,4.581489484E-4,6.078109145E-2,-1.291979998E-1
3.201781144E0,4.581489484E-4,4.382958263E-2,-1.243110746E-1
3.203891750E0,3.970623948E-3,3.405573592E-2,-1.230893433E-1
3.205998367E0,2.351831272E-2,4.718934000E-2,-1.159116775E-1
3.208101771E0,3.100141138E-2,4.825835302E-2,-9.896016866E-2
3.210216415E0,2.122756653E-2,3.985895589E-2,-9.025534242E-2
3.212324580E0,1.389718428E-2,4.245513305E-2,-8.170322329E-2
3.214434616E0,2.122756653E-2,3.145955876E-2,-7.208210230E-2
3.216539729E0,1.893682219E-2,3.863722831E-2,-5.619960278E-2
3.218643774E0,7.024950348E-3,4.963280261E-2,-2.428189293E-2
3.220755367E0,-1.343903504E-2,6.673702598E-2,5.039638374E-3
3.222856298E0,-2.535090782E-2,9.957103431E-2,2.840523422E-2
3.224976486E0,-2.031126991E-2,1.043052375E-1,5.757404864E-2
3.227084681E0,-2.138028387E-3,7.024950534E-2,7.941248268E-2
3.229199550E0,2.229658142E-2,6.276640296E-2,9.025534242E-2
3.231296149E0,3.680463135E-2,5.054909736E-2,9.254608303E-2
3.233407060E0,2.932153270E-2,1.542434748E-2,9.010262042E-2
3.235513738E0,5.039638374E-3,1.924225502E-2,8.536841720E-2
3.237624354E0,-8.399397135E-3,2.428189293E-2,8.429940045E-2
3.239729630E0,-1.924225502E-2,2.428189293E-2,9.651670605E-2
3.241828457E0,-2.535090782E-2,5.039638374E-3,1.172861308E-1
3.243934494E0,-2.290744707E-2,-1.924225502E-2,1.342376322E-1
3.246044389E0,-1.404990070E-2,2.901609987E-2,1.525636017E-1
3.248155300E0,-9.926560335E-3,8.827003092E-2,1.757764816E-1
3.250263495E0,-7.330383174E-3,9.315694869E-2,2.099849284E-1
3.252371416E0,3.359758761E-3,2.153299935E-2,2.391537428E-1
3.254480016E0,1.771509275E-2,-3.420845419E-2,2.512183189E-1
3.256588069E0,1.649336144E-2,-4.520402849E-2,2.571742535E-1
3.258697292E0,1.771509275E-2,-2.214386500E-2,2.426662147E-1
3.260804216E0,1.023199316E-2,-1.954768784E-2,2.023491114E-1
3.262912350E0,5.039638374E-3,-3.894266114E-2,1.597412676E-1
3.265021439E0,-7.177666761E-3,-2.061670274E-2,1.293507218E-1
3.267133001E0,-3.359758761E-3,1.939497143E-2,1.183551401E-1
3.269239355E0,3.970623948E-3,2.535090782E-2,1.281289905E-1
3.271348528E0,1.481348183E-2,-6.261368748E-3,1.463022232E-1
3.273453051E0,3.420845419E-2,-4.398229718E-2,1.632537395E-1
3.275562547E0,4.871650413E-2,-5.009094998E-2,1.692096740E-1
3.277669531E0,4.993823543E-2,-6.108652428E-2,1.631010175E-1
3.279778347E0,2.428189293E-2,-5.115996301E-2,1.461495161E-1
3.281886543E0,-2.764165215E-2,1.221730467E-2,1.197295859E-1
3.283995632E0,-7.757988572E-2,3.084869497E-2,8.597928286E-2
3.286103105E0,-1.023199260E-1,-2.748893574E-3,5.436700583E-2
3.288211250E0,-8.185594529E-2,-1.740965992E-2,2.000583708E-2
3.290319597E0,-1.618792862E-2,-2.138028387E-3,-4.734205548E-3
3.292428831E0,6.643159688E-2,1.404990070E-2,-8.857546374E-3
3.294536669E0,1.088867337E-1,-1.053742506E-2,-9.162978269E-3
3.296645637E0,1.195768714E-1,-6.261368841E-2,-1.175915636E-2
3.298755043E0,8.414668590E-2,-7.452555746E-2,-1.511891466E-2
3.300873899E0,1.740965992E-2,-5.696318299E-2,-1.359175146E-2
3.302981493E0,-6.017022580E-2,-1.756237634E-2,-1.908953860E-2
3.305087756E0,-1.098030284E-1,2.641992271E-2,-2.611448988E-2
3.307186989E0,-1.000291854E-1,4.214970022E-2,-4.321871698E-2
3.309305316E0,-7.223481685E-2,4.428773001E-2,-5.925392732E-2
3.311412229E0,-3.588833287E-2,2.474004216E-2,-7.055493444E-2
3.313522754E0,1.527163084E-3,-1.435533352E-2,-7.192938030E-2
3.315628394E0,2.947424725E-2,-3.161227703E-2,-6.841690838E-2
3.317736855E0,3.924809024E-2,-1.237002108E-2,-6.490442902E-2
3.319845396E0,3.344487399E-2,2.764165215E-2,-5.742133409E-2
3.321953408E0,1.420261711E-2,4.352414981E-2,-4.276056588E-2
3.324062040E0,-7.788531948E-3,9.926560335E-3,-2.306016348E-2
3.326172930E0,-2.138028294E-2,-4.932736978E-2,2.596177394E-3
3.328284482E0,-2.748893574E-2,-7.712173462E-2,3.054326214E-2
3.330386544E0,-2.901609987E-3,-5.436700583E-2,4.993823543E-2
3.332494240E0,2.764165215E-2,-2.199114859E-2,5.955936015E-2
3.334601316E0,5.085453019E-2,-1.618792862E-2,6.795875728E-2
3.336711119E0,6.307183951E-2,-1.389718428E-2,6.795875728E-2
3.338820036E0,5.467243865E-2,5.497787148E-3,7.162395120E-2
3.340930072E0,3.680463135E-2,6.750060618E-2,7.299839705E-2
3.343036986E0,2.122756653E-2,1.062905490E-1,7.925976813E-2
3.345144143E0,-1.175915636E-2,7.635815442E-2,9.285151958E-2
3.347251901E0,-4.337143153E-2,4.505131021E-2,1.076650023E-1
3.349357838E0,-6.765332818E-2,4.657847434E-2,1.188132912E-1
3.351458414E0,-6.887505949E-2,2.351831272E-2,1.273654103E-1
3.353575886E0,-4.963280261E-2,-8.093964309E-3,1.333213449E-1
3.355684141E0,-1.679879427E-2,-4.734205548E-3,1.379028261E-1
3.357796425E0,2.351831272E-2,2.031126991E-2,1.401935667E-1
3.359902617E0,3.680463135E-2,1.298088674E-2,1.412625909E-1
3.362008646E0,1.481348183E-2,-2.443460934E-2,1.426370293E-1
3.364119556E0,-1.817324013E-2,-2.290744707E-2,1.354593635E-1
3.366226418E0,-2.275473066E-2,3.878994286E-2,1.246165112E-1
3.368335386E0,4.276056774E-3,9.315694869E-2,1.122464910E-1
3.370442778E0,4.428773001E-2,9.514226019E-2,9.743300825E-2
3.372551208E0,6.475171447E-2,6.108652428E-2,8.628471941E-2
3.374659860E0,5.971207842E-2,2.122756653E-2,8.506298810E-2
3.376768818E0,2.672535367E-2,-6.261368748E-3,9.865473956E-2
3.378876087E0,1.343903504E-2,-2.076941915E-2,1.194241568E-1
3.380984354E0,1.710422710E-2,-4.016438872E-2,1.365283877E-1
3.383093811E0,4.031710699E-2,-2.458732575E-2,1.510364264E-1
3.385206837E0,4.550946131E-2,1.893682219E-2,1.608102769E-1
3.387309122E0,2.244929783E-2,3.481931984E-2,1.646281779E-1
3.389413472E0,-1.542434748E-2,6.108652335E-3,1.562287807E-1
3.391508625E0,-4.474587739E-2,-1.053742506E-2,1.331686229E-1
3.393632080E0,-2.535090782E-2,9.926560335E-3,1.087340117E-1
3.395731231E0,-7.177666761E-3,2.183843218E-2,7.819075137E-2
3.397850463E0,2.596177394E-3,5.207626149E-2,5.497787148E-2
3.399941182E0,1.237002108E-2,1.003346145E-1,2.687807009E-2
3.402062307E0,2.092213556E-2,1.281289905E-1,4.886921961E-3
3.404174265E0,2.596177394E-3,9.926560521E-2,-3.512475174E-3
3.406284128E0,4.581489135E-3,2.901609987E-2,-8.552113548E-3
3.408393717E0,1.878410578E-2,-2.794708498E-2,-1.847867295E-2
3.410500763E0,4.046982154E-2,-5.467243865E-2,-2.107485011E-2
3.412608786E0,2.443460934E-2,-8.720101416E-2,-2.703078650E-2
3.414716247E0,-1.206458826E-2,-9.666942805E-2,-3.298672289E-2
3.416824198E0,-4.596760869E-2,-7.330382615E-2,-2.168571576E-2
3.418932810E0,-3.955352306E-2,-3.833179548E-2,1.374446787E-3
3.421041067E0,-1.863138936E-2,-1.313360315E-2,1.970040426E-2
3.423147970E0,-8.857546374E-3,-1.435533352E-2,3.176499158E-2
3.425256765E0,-1.466076635E-2,7.483099122E-3,4.764748737E-2
3.427364451E0,-3.176499158E-2,3.054326226E-4,5.757404864E-2
3.429462505E0,-3.543018550E-2,-1.542434748E-2,6.734789163E-2
3.431576549E0,-3.054326214E-2,-5.803219974E-3,6.246097013E-2
3.433690135E0,-2.932153270E-2,1.725694351E-2,4.902193695E-2
3.435801331E0,-3.527746722E-2,3.176499158E-2,4.413501546E-2
3.437904846E0,-4.031710699E-2,-1.985311974E-3,3.313944116E-2
3.440000917E0,-2.733621933E-2,-4.688390717E-2,2.092213556E-2
3.442123658E0,7.788531948E-3,-5.329799280E-2,-1.374446787E-3
3.444232788E0,2.351831272E-2,-2.672535367E-2,-3.313944116E-2
3.446343536E0,4.062253982E-2,1.069014147E-2,-6.856962293E-2
3.448448233E0,5.757404864E-2,2.748893574E-2,-9.789115191E-2
3.450556123E0,4.520402849E-2,-1.527163113E-4,-1.123992056E-1
3.452664705E0,1.832595654E-2,-2.412917651E-2,-1.244637966E-1
3.454772930E0,3.665191587E-3,-2.519819140E-2,-1.391245574E-1
3.456881176E0,1.069014193E-3,-2.031126991E-2,-1.572978050E-1
3.458989656E0,7.024950348E-3,-2.275473066E-2,-1.792889535E-1
3.461097760E0,1.924225502E-2,-1.313360315E-2,-1.928807050E-1
3.463201652E0,2.168571576E-2,-1.084285788E-2,-1.941024363E-1
3.465314179E0,1.435533352E-2,-2.290744567E-3,-1.902845204E-1
3.467422120E0,-2.443460980E-3,2.214386500E-2,-1.890627891E-1
3.469528993E0,-1.817324013E-2,3.313944116E-2,-1.876883507E-1
3.471625856E0,-3.756821156E-2,5.513058975E-2,-1.826487035E-1
3.473736950E0,-5.451972410E-2,4.550946131E-2,-1.824959964E-1
3.475855785E0,-5.497787148E-2,-2.947424725E-2,-1.863138974E-1
3.477967286E0,-3.466660157E-2,-9.010262042E-2,-1.901318133E-1
3.480074088E0,-7.941247895E-3,-8.429940045E-2,-1.963931769E-1
3.482178550E0,2.718350291E-2,-9.682214260E-2,-2.014328092E-1
3.484286674E0,5.177082866E-2,-4.367686436E-2,-2.028072625E-1
3.486395449E0,7.055493444E-2,3.955352306E-2,-2.015855312E-1
3.488505108E0,6.811147183E-2,3.115412779E-2,-1.954768747E-1
3.490613375E0,4.108068720E-2,-1.939497143E-2,-1.869247705E-1
3.492719210E0,1.802052557E-2,-3.497203439E-2,-1.745547503E-1
3.494820243E0,1.191187184E-2,-3.008511290E-2,-1.635591686E-1
3.496938142E0,2.306016348E-2,-2.046398632E-2,-1.452332139E-1
3.499047253E0,3.039054573E-2,-1.695151068E-2,-1.295034289E-1
3.501156639E0,3.772092983E-2,-2.672535367E-2,-1.209513173E-1
3.503262434E0,3.649919853E-2,-3.527746722E-2,-1.038470939E-1
3.505372795E0,3.176499158E-2,-3.039054573E-2,-9.162978828E-2
3.507488273E0,4.184427112E-2,2.519819140E-2,-8.918632567E-2
3.509587903E0,3.833179548E-2,4.214970022E-2,-8.429940045E-2
3.511696505E0,3.313944116E-2,9.621127509E-3,-9.529497474E-2
3.513801598E0,1.007927675E-2,1.466076635E-2,-1.049161032E-1
3.515909650E0,-1.893682219E-2,5.238169432E-2,-1.119410545E-1
3.518008069E0,-3.359758854E-2,4.046982154E-2,-1.180497110E-1
3.520115969E0,-3.130684420E-2,1.496619824E-2,-1.229366288E-1
3.522224226E0,-1.435533352E-2,1.847867295E-2,-1.206458881E-1
3.524334627E0,2.748893574E-3,2.321287990E-2,-1.218676195E-1
3.526443331E0,1.725694351E-2,2.550362423E-2,-1.354593635E-1
3.528552187E0,2.840523422E-2,8.964447677E-2,-1.598939747E-1
3.530659833E0,3.695734590E-2,1.039998084E-1,-1.708895564E-1
3.532768232E0,4.382958263E-2,3.985895589E-2,-1.757764816E-1
3.534878919E0,4.337143153E-2,-6.551529467E-2,-1.710422635E-1
3.536997368E0,4.306599870E-2,-1.127046347E-1,-1.663080603E-1
3.539105218E0,3.084869497E-2,-1.137736514E-1,-1.698205322E-1
3.541213148E0,-3.970623948E-3,-4.077525437E-2,-1.805106848E-1
3.543317682E0,-4.505131021E-2,2.000583708E-2,-1.924225539E-1
3.545430107E0,-8.994990587E-2,5.192354694E-2,-2.006692290E-1
3.547547682E0,-9.957103431E-2,7.742717117E-2,-2.115120888E-1
3.549640587E0,-5.818491429E-2,8.429940045E-2,-2.275473028E-1
3.551737135E0,8.093964309E-3,8.704829961E-3,-2.377792895E-1
3.553857436E0,7.208210230E-2,-5.711590126E-2,-2.480112910E-1
3.555968672E0,1.064432710E-1,2.122756653E-2,-2.701551616E-1
3.558080672E0,8.643743396E-2,1.496619880E-1,-2.967278063E-1
3.560182265E0,4.382958263E-2,1.634064466E-1,-3.171917796E-1
3.562281997E0,1.160643995E-2,6.200282276E-2,-3.280346394E-1
3.564402215E0,1.588249579E-2,-3.604105115E-2,-3.330742717E-1
3.566511021E0,3.619376570E-2,-1.064432710E-1,-3.332269788E-1
3.568621006E0,5.329799280E-2,-1.125519201E-1,-3.272710443E-1
3.570726363E0,6.459899992E-2,-5.574145541E-2,-3.150537610E-1
3.572834222E0,6.261368841E-2,3.497203439E-2,-3.052799106E-1
3.574943057E0,5.681046844E-2,5.558873713E-2,-2.941316068E-1
3.577051477E0,4.795292020E-2,-1.328631863E-2,-2.832887471E-1
3.579159357E0,2.244929783E-2,-1.435533352E-2,-2.721404731E-1
3.581261012E0,-1.252273750E-2,3.924809024E-2,-2.767219543E-1
3.583368169E0,-4.657847434E-2,4.199698567E-2,-2.790127099E-1
3.585483952E0,-8.093964309E-2,-2.306016348E-2,-2.715296149E-1
3.587593448E0,-9.453139454E-2,-8.842274547E-2,-2.580905557E-1
3.589702539E0,-5.451972410E-2,-1.105666086E-1,-2.437352389E-1
3.591808761E0,1.374446787E-2,-1.001819000E-1,-2.283108830E-1
3.593914992E0,6.719517708E-2,-1.079704314E-1,-2.139555514E-1
3.596016148E0,8.674286306E-2,-1.081231460E-1,-2.018909603E-1
3.598133661E0,4.444044828E-2,-6.185010448E-2,-1.905899495E-1
3.600241826E0,-5.253441259E-2,-2.351831272E-2,-1.789835095E-1
3.602352280E0,-1.142318025E-1,3.268129006E-2,-1.711949855E-1
3.604458093E0,-9.804387391E-2,9.193521738E-2,-1.664607823E-1
3.606565516E0,-5.314527452E-2,7.452555746E-2,-1.666134894E-1
3.608674952E0,1.206458826E-2,-1.679879427E-2,-1.635591686E-1
3.610782994E0,8.582656831E-2,-7.315111160E-2,-1.652390510E-1
3.612891047E0,1.088867337E-1,-7.941248268E-2,-1.641700417E-1
3.614996047E0,7.360926270E-2,-1.153008118E-1,-1.518000066E-1
3.617097814E0,3.222314268E-2,-1.247692257E-1,-1.380555481E-1
3.619213578E0,1.939497143E-2,-3.985895589E-2,-1.256855279E-1
3.621314316E0,1.725694351E-2,2.061670274E-2,-1.171334088E-1
3.623434993E0,3.817907767E-3,1.527163113E-4,-1.085812971E-1
3.625540807E0,-2.672535367E-2,-3.466660157E-2,-1.072068512E-1
3.627651871E0,-3.634648025E-2,-2.122756653E-2,-1.156062484E-1
3.629758357E0,-9.621127509E-3,-1.542434748E-2,-1.230893433E-1
3.631865637E0,2.076941915E-2,-2.061670274E-2,-1.232420653E-1
3.633974767E0,3.176499158E-2,-1.221730490E-3,-1.258382350E-1
3.636081732E0,2.092213556E-2,2.672535367E-2,-1.366810948E-1
3.638187912E0,5.039638374E-3,3.039054573E-2,-1.487456858E-1
3.640289047E0,9.773843922E-3,1.343903504E-2,-1.634064466E-1
3.642406744E0,2.306016348E-2,2.183843218E-2,-1.794416606E-1
3.644515295E0,3.512475267E-2,2.061670274E-2,-1.904372424E-1
3.646626419E0,3.023782931E-2,3.665191587E-3,-1.879937798E-1
3.648728816E0,2.779436857E-2,3.665191587E-3,-1.904372424E-1
3.650829362E0,4.123340547E-2,1.695151068E-2,-2.014328092E-1
3.652947740E0,4.596760869E-2,2.168571576E-2,-2.112066597E-1
3.655056300E0,3.252857551E-2,1.817324013E-2,-2.185370475E-1
3.657167089E0,9.468411095E-3,5.039638374E-3,-2.196060568E-1
3.659272029E0,-3.970623948E-3,-2.138028387E-3,-2.157881409E-1
3.661378516E0,3.359758761E-3,7.483099122E-3,-2.110539377E-1
3.663490281E0,2.657263726E-2,1.710422710E-2,-2.134974003E-1
3.665597377E0,4.718934000E-2,7.177666761E-3,-2.148718536E-1
3.667706386E0,6.398813426E-2,-8.704829961E-3,-2.199114859E-1
3.669813280E0,7.987063378E-2,-1.374446787E-2,-2.212859392E-1
3.671920600E0,8.704829961E-2,-2.458732575E-2,-2.151772827E-1
3.674028855E0,7.987063378E-2,-1.847867295E-2,-2.029599845E-1
3.676137518E0,6.429356337E-2,-3.970623948E-3,-1.918116808E-1
3.678247738E0,3.878994286E-2,1.221730490E-3,-1.757764816E-1
3.680356524E0,1.084285788E-2,-1.313360315E-2,-1.550070494E-1
3.682463803E0,-9.773843922E-3,-2.031126991E-2,-1.389718503E-1
3.684572414E0,-1.924225502E-2,-5.650503561E-3,-1.206458881E-1
3.686679643E0,-8.246680722E-3,9.926560335E-3,-9.987647086E-2
3.688788113E0,8.857546374E-3,8.552113548E-3,-8.414668590E-2
3.690896186E0,2.840523422E-2,4.734205548E-3,-6.230825558E-2
3.693003344E0,4.184427112E-2,-5.039638374E-3,-3.924809024E-2
3.695108202E0,4.184427112E-2,-2.321287990E-2,-1.725694351E-2
3.697222256E0,3.466660157E-2,-2.687807009E-2,2.290744567E-3
3.699328000E0,3.130684420E-2,-1.374446787E-3,2.183843218E-2
3.701433113E0,2.779436857E-2,1.786780916E-2,4.382958263E-2
3.703545021E0,2.550362423E-2,1.908953860E-2,6.582073122E-2
3.705652046E0,2.183843218E-2,-1.374446787E-3,8.643743396E-2
3.707763791E0,1.817324013E-2,-1.710422710E-2,9.987647086E-2
3.709870572E0,1.466076635E-2,-1.466076635E-2,1.023199260E-1
3.711979703E0,1.343903504E-2,-5.039638374E-3,1.035416573E-1
3.714088508E0,8.552113548E-3,4.734205548E-3,1.024726480E-1
3.716195452E0,8.552113548E-3,7.177666761E-3,9.880745411E-2
3.718303790E0,7.330383174E-3,4.734205548E-3,9.392052889E-2
3.720411456E0,6.108652335E-3,-2.443460980E-3,8.781187981E-2
3.722520008E0,7.177666761E-3,-2.443460980E-3,7.803803682E-2
3.724628273E0,8.399397135E-3,4.734205548E-3,7.070764899E-2
3.726733986E0,1.328631863E-2,-1.527163113E-4,6.215553731E-2
3.728834897E0,2.046398632E-2,1.069014193E-3,5.482515693E-2
3.730951546E0,2.168571576E-2,-1.374446787E-3,4.871650413E-2
3.733051319E0,1.679879427E-2,3.512475174E-3,4.627304152E-2
3.735172269E0,1.084285788E-2,9.621127509E-3,4.016438872E-2
3.737277555E0,4.734205548E-3,8.399397135E-3,3.665191308E-2
3.739389097E0,9.162978968E-4,6.108652335E-3,3.054326214E-2
3.741496519E0,-2.748893574E-3,2.443460980E-3,2.199114859E-2
3.743601001E0,-2.748893574E-3,6.108652335E-3,1.221730467E-2
3.745709837E0,-1.527163084E-3,6.108652335E-3,3.665191587E-3
3.747816842E0,-2.901609987E-3,4.886921961E-3,1.221730490E-3
3.749917245E0,-8.857546374E-3,5.039638374E-3,3.817907767E-3
3.752035776E0,-8.857546374E-3,1.374446787E-3,7.330383174E-3
3.754143460E0,-2.901609987E-3,-2.290744567E-3,1.221730490E-3
3.756254596E0,3.207042580E-3,-0.000000000E0,-2.443460980E-3
3.758360187E0,1.985311974E-3,-1.221730490E-3,-2.443460980E-3
3.760468454E0,-2.901609987E-3,-2.290744567E-3,2.443460980E-3
3.762576923E0,-4.123340361E-3,-3.512475174E-3,2.443460980E-3
3.764686094E0,-6.566801574E-3,1.527163113E-4,2.443460980E-3
3.766793526E0,-7.635815535E-3,2.596177394E-3,1.221730490E-3
3.768902556E0,-6.414085161E-3,5.039638374E-3,1.221730490E-3
3.771007140E0,-6.414085161E-3,3.817907767E-3,1.221730490E-3
3.773108896E0,-5.192354787E-3,4.886921961E-3,2.443460980E-3
3.775226011E0,-5.192354787E-3,3.817907767E-3,3.665191587E-3
3.777334492E0,-5.192354787E-3,4.886921961E-3,3.665191587E-3
3.779445688E0,-3.970623948E-3,6.108652335E-3,4.886921961E-3
3.781555185E0,-5.192354787E-3,7.330383174E-3,3.665191587E-3
3.783665496E0,-6.414085161E-3,8.552113548E-3,6.108652335E-3
3.785767486E0,-5.192354787E-3,7.330383174E-3,7.330383174E-3
3.787875030E0,-2.748893574E-3,8.552113548E-3,6.108652335E-3
3.789982391E0,-2.748893574E-3,8.552113548E-3,7.330383174E-3
3.792092122E0,-5.192354787E-3,7.330383174E-3,8.552113548E-3
3.794200306E0,-3.970623948E-3,9.773843922E-3,9.773843922E-3
3.796308868E0,-3.970623948E-3,9.773843922E-3,9.773843922E-3
3.798417877E0,-5.192354787E-3,8.552113548E-3,9.773843922E-3
3.800524801E0,-2.748893574E-3,9.773843922E-3,1.099557430E-2
3.802631774E0,-2.748893574E-3,8.552113548E-3,1.343903504E-2
3.804737741E0,-3.970623948E-3,6.108652335E-3,1.221730467E-2
3.806837798E0,-1.527163084E-3,8.552113548E-3,1.343903504E-2
3.808946136E0,-3.970623948E-3,6.108652335E-3,1.588249579E-2
3.811054209E0,-3.970623948E-3,4.886921961E-3,1.710422710E-2
3.813164398E0,-2.748893574E-3,4.886921961E-3,1.588249579E-2
3.815275716E0,-2.748893574E-3,4.886921961E-3,1.832595654E-2
3.817392222E0,-2.748893574E-3,4.886921961E-3,1.832595654E-2
3.819499421E0,-1.527163084E-3,4.886921961E-3,1.832595654E-2
3.821599549E0,-2.748893574E-3,3.665191587E-3,2.076941915E-2
3.823716136E0,-2.748893574E-3,2.443460980E-3,2.076941915E-2
3.825824065E0,-2.748893574E-3,4.886921961E-3,2.199114859E-2
3.827934733E0,-2.748893574E-3,3.665191587E-3,2.199114859E-2
3.830040894E0,-3.970623948E-3,2.443460980E-3,2.565634064E-2
3.832149709E0,-2.748893574E-3,2.443460980E-3,2.687807009E-2
3.834257324E0,-3.970623948E-3,3.665191587E-3,2.809980139E-2
3.836364991E0,-3.970623948E-3,2.443460980E-3,3.176499158E-2
3.838467744E0,-3.970623948E-3,1.221730490E-3,3.420845419E-2
3.840581951E0,-3.817907767E-3,-0.000000000E0,3.787364438E-2
3.842689739E0,-5.039638374E-3,1.221730490E-3,4.153883830E-2
3.844799907E0,-5.039638374E-3,-0.000000000E0,4.520402849E-2
3.846907064E0,-6.261368748E-3,-1.069014193E-3,4.886921868E-2
3.849013215E0,-6.261368748E-3,-1.069014193E-3,5.619960278E-2
3.851112774E0,-7.330383174E-3,-0.000000000E0,6.230825558E-2
3.853231080E0,-6.108652335E-3,-0.000000000E0,6.963863969E-2
3.855339285E0,-7.330383174E-3,1.221730490E-3,7.696902007E-2
3.857450339E0,-7.330383174E-3,-0.000000000E0,8.185594529E-2
3.859553488E0,-6.108652335E-3,-0.000000000E0,8.903361112E-2
3.861653902E0,-5.955935922E-3,-1.221730490E-3,9.758572280E-2
3.863771516E0,-7.177666761E-3,-0.000000000E0,1.024726480E-1
3.865880596E0,-7.177666761E-3,1.221730490E-3,1.110247597E-1
3.867991589E0,-5.955935922E-3,-0.000000000E0,1.195768714E-1
3.870095176E0,-5.803219974E-3,3.665191587E-3,1.256855279E-1
3.872196311E0,-5.803219974E-3,4.886921961E-3,1.366810948E-1
3.874313782E0,-4.428773187E-3,9.621127509E-3,1.464549452E-1
3.876421948E0,-7.635815418E-4,1.679879427E-2,1.574505121E-1
3.878532493E0,1.679879380E-3,1.679879427E-2,1.682933718E-1
3.880638633E0,4.123340361E-3,1.557706390E-2,1.756237596E-1
3.882747611E0,4.123340361E-3,5.955935922E-3,1.853975952E-1
3.884854982E0,1.832595794E-3,-1.527163113E-4,1.963931769E-1
3.886963177E0,-4.276056774E-3,3.512475174E-3,2.110539377E-1
3.889071189E0,-4.123340361E-3,4.734205548E-3,2.244929820E-1
3.891179659E0,1.985311974E-3,2.138028387E-3,2.414444834E-1
3.893285290E0,2.138028387E-3,2.138028387E-3,2.561052442E-1
3.895383383E0,-5.192354787E-3,-2.596177394E-3,2.707660198E-1
3.897491579E0,-8.704829961E-3,3.512475174E-3,2.878702581E-1
3.899597261E0,-1.099557430E-2,8.246680722E-3,2.976440787E-1
3.901710930E0,-7.330383174E-3,1.069014147E-2,3.037527502E-1
3.903827497E0,-2.443460980E-3,2.275473066E-2,3.123048544E-1
3.905929415E0,-3.512475174E-3,2.641992271E-2,3.208569586E-1
3.908048800E0,-1.206458826E-2,1.924225502E-2,3.294090927E-1
3.910153536E0,-9.468411095E-3,2.397646010E-2,3.404046595E-1
3.912264722E0,-4.581489135E-3,2.748893574E-2,3.477350473E-1
3.914370475E0,-4.581489135E-3,2.519819140E-2,3.538436890E-1
3.916479565E0,-8.246680722E-3,1.420261711E-2,3.550654352E-1
3.918586907E0,-1.313360315E-2,3.359758761E-3,3.575088978E-1
3.920694939E0,-2.290744707E-2,-3.817907767E-3,3.648392558E-1
3.922802971E0,-2.641992271E-2,5.955935922E-3,3.721696436E-1
3.924911653E0,-2.748893574E-2,3.008511290E-2,3.807217777E-1
3.927019920E0,-2.748893574E-2,4.108068720E-2,3.843869567E-1
3.929128339E0,-2.367102914E-2,4.337143153E-2,3.941608071E-1
3.931236586E0,-2.260201424E-2,3.130684420E-2,4.002694488E-1
3.933344048E0,-2.504547499E-2,1.557706390E-2,4.100432992E-1
3.935451622E0,-2.993239649E-2,4.734205548E-3,4.222606122E-1
3.937564120E0,-2.733621933E-2,1.191187184E-2,4.320344329E-1
3.939680677E0,-2.367102914E-2,2.519819140E-2,4.379903674E-1
3.941777693E0,-1.634064503E-2,2.397646010E-2,4.404338300E-1
3.943885715E0,-2.367102914E-2,2.275473066E-2,4.404338300E-1
3.945991214E0,-4.550946131E-2,2.290744707E-2,4.332561791E-1
3.948101780E0,-6.017022580E-2,2.794708498E-2,4.297437072E-1
3.950208479E0,-6.612616032E-2,4.245513305E-2,4.273002446E-1
3.952318851E0,-6.017022580E-2,1.954768784E-2,4.199698567E-1
3.954427066E0,-4.581489414E-2,-1.695151068E-2,4.100432992E-1
3.956535841E0,-3.023782931E-2,-2.672535367E-2,3.978259861E-1
3.958643467E0,-1.572977938E-2,-2.443460934E-2,3.793473244E-1
3.960751620E0,-4.886921961E-3,-2.565634064E-2,3.597996235E-1
3.962859989E0,-1.817324013E-2,-1.832595654E-2,3.477350473E-1
3.964968570E0,-4.505131021E-2,-1.679879427E-2,3.356704414E-1
3.967077569E0,-6.093380973E-2,-2.153299935E-2,3.223841190E-1
3.969185551E0,-5.238169432E-2,-9.468411095E-3,3.162754774E-1
3.971294011E0,-3.420845419E-2,-9.621127509E-3,3.124575615E-1
3.973390843E0,-1.970040426E-2,-2.916881628E-2,3.086396754E-1
3.975509444E0,-3.191770986E-2,-4.841107130E-2,3.087923825E-1
3.977616733E0,-3.451388702E-2,-5.925392732E-2,3.100140989E-1
3.979728418E0,-2.443460934E-2,-2.183843218E-2,3.135266006E-1
3.981831822E0,-8.399397135E-3,2.886338346E-2,3.196352422E-1
3.983933292E0,3.665191587E-3,3.359758854E-2,3.074179292E-1
3.986050724E0,-1.099557430E-2,1.313360315E-2,2.939788997E-1
3.988159001E0,-3.543018550E-2,1.099557430E-2,2.831360400E-1
3.990267461E0,-3.420845419E-2,1.099557430E-2,2.698497176E-1
3.992364883E0,-2.687807009E-2,3.145955876E-2,2.661845386E-1
3.994471104E0,3.512475174E-3,4.214970022E-2,2.671008408E-1
3.996581944E0,1.802052557E-2,2.138028294E-2,2.658790946E-1
3.998702865E0,-3.054326226E-4,-7.483099122E-3,2.658790946E-1
4.000812006E0,-3.924809024E-2,-4.734205548E-3,2.661845386E-1
4.002916926E0,-3.649919853E-2,4.734205827E-2,2.722931802E-1
4.005014449E0,7.788531948E-3,1.279762685E-1,2.794708610E-1
4.007132990E0,1.007927675E-2,1.267545372E-1,2.745839357E-1
4.009242813E0,-3.405573592E-2,6.780604273E-2,2.625193298E-1
4.011358638E0,-5.971207842E-2,4.260785133E-2,2.504547536E-1
4.013457931E0,-4.764748737E-2,2.932153270E-2,2.382374406E-1
4.015564203E0,-1.618792862E-2,1.572977938E-2,2.232712507E-1
4.017663843E0,1.634064503E-2,-2.565634064E-2,2.072360367E-1
4.019780818E0,6.093380973E-2,-6.001751125E-2,1.898263693E-1
4.021881170E0,8.261952549E-2,-9.040805697E-2,1.823432744E-1
4.023988774E0,7.574728876E-2,-5.161811411E-2,2.020436823E-1
4.026094782E0,2.886338346E-2,4.077525437E-2,2.182316035E-1
4.028204808E0,-5.207626149E-2,1.175915599E-1,2.370157093E-1
4.030313858E0,-8.704829961E-2,1.615738571E-1,2.580905557E-1
4.032422379E0,-4.948008433E-2,1.333213449E-1,2.553416789E-1
4.034534083E0,3.878994286E-2,4.550946131E-2,2.412917763E-1
4.036649205E0,9.926560521E-2,9.773843922E-3,2.373211533E-1
4.038750138E0,9.575312585E-2,4.489859566E-2,2.336559594E-1
4.040867407E0,6.047565863E-2,3.558290005E-2,2.193006277E-1
4.042973181E0,1.282817032E-2,1.908953860E-2,2.049452960E-1
4.045083908E0,-5.894849449E-2,1.847867295E-2,1.858557463E-1
4.047189652E0,-1.090394482E-1,-3.970623948E-3,1.531744599E-1
4.049298224E0,-1.203404516E-1,-2.809980139E-2,1.238529310E-1
4.051407223E0,-1.081231460E-1,-1.847867295E-2,1.043052375E-1
4.053514594E0,-8.353582025E-2,4.673119262E-2,1.018617824E-1
4.055622768E0,-5.421429127E-2,7.788532227E-2,1.004873365E-1
4.057730729E0,-8.552113548E-3,-7.177666761E-3,9.025534242E-2
4.059838395E0,2.504547499E-2,-9.834930301E-2,8.765916526E-2
4.061943793E0,3.100141138E-2,-1.201877370E-1,9.239336848E-2
4.064054561E0,-1.038470957E-2,-1.307251602E-1,9.392052889E-2
4.066163030E0,-6.368270516E-2,-1.047633886E-1,1.027780771E-1
4.068274207E0,-8.613199741E-2,-2.901609987E-3,1.163698286E-1
4.070382279E0,-4.841107130E-2,2.825251780E-2,1.088867337E-1
4.072495113E0,9.621127509E-3,-2.428189293E-2,7.803803682E-2
4.074596736E0,7.971791178E-2,-6.246097013E-2,4.825835302E-2
4.076705197E0,1.001819000E-1,-5.894849449E-2,2.138028294E-2
4.078811987E0,4.352414981E-2,1.664607786E-2,1.191187184E-2
4.080921759E0,-2.153299935E-2,1.333213449E-1,3.054326226E-4
4.083030107E0,-7.024950534E-2,1.605048478E-1,-2.871066704E-2
4.085139289E0,-6.597344577E-2,8.307767659E-2,-7.024950534E-2
4.087246457E0,-6.780604273E-2,-4.581489484E-4,-1.007927656E-1
4.089351335E0,-6.429356337E-2,-1.496619824E-2,-1.142318025E-1
4.091446367E0,-3.054326214E-2,-4.428773001E-2,-1.230893433E-1
4.093561053E0,2.183843218E-2,-6.047565863E-2,-1.099557430E-1
4.095679644E0,5.482515693E-2,-2.321287990E-2,-1.003346145E-1
4.097791195E0,4.520402849E-2,-3.817907767E-3,-9.911288321E-2
4.099898994E0,4.581489484E-4,7.483099122E-3,-8.781187981E-2
4.102005073E0,-2.626720630E-2,-9.315694682E-3,-6.444628537E-2
4.104110124E0,-2.657263726E-2,-6.627888232E-2,-4.260785133E-2
4.106211545E0,-6.719517522E-3,-2.046398632E-2,-1.343903504E-2
4.108328743E0,-9.773843922E-3,6.307183951E-2,6.261368748E-3
4.110437131E0,-4.016438872E-2,7.177666575E-2,-3.359758761E-3
4.112547625E0,-4.780020565E-2,2.107485011E-2,-2.901609987E-2
4.114652767E0,-4.841107130E-2,-4.428773001E-2,-5.589416996E-2
4.116758390E0,-5.009094998E-2,-1.035416573E-1,-8.399397135E-2
4.118871274E0,-3.283400834E-2,-4.673119262E-2,-9.376781434E-2
4.120978005E0,-2.611448988E-2,6.459899992E-2,-9.361509979E-2
4.123085956E0,-7.941247895E-3,6.688974798E-2,-1.120937690E-1
4.125190864E0,8.857546374E-3,3.649919853E-2,-1.340849251E-1
4.127292813E0,-7.330383174E-3,2.748893574E-3,-1.536326110E-1
4.129409554E0,-3.420845419E-2,-2.244929783E-2,-1.766927689E-1
4.131510730E0,-4.505131021E-2,3.100141138E-2,-1.912008226E-1
4.133630623E0,-4.321871698E-2,1.411098689E-1,-1.947132945E-1
4.135737109E0,-1.053742506E-2,1.359175146E-1,-2.156354338E-1
4.137846616E0,4.810563847E-2,1.069014193E-3,-2.478585690E-1
4.139952604E0,1.058324054E-1,-1.033889428E-1,-2.617557645E-1
4.142060484E0,1.035416573E-1,-8.888089657E-2,-2.556470931E-1
4.144167426E0,4.077525437E-2,-6.108652335E-3,-2.466368377E-1
4.146270841E0,-5.497787148E-2,3.115412779E-2,-2.350303978E-1
4.148385415E0,-1.107193232E-1,4.734205827E-2,-2.176207453E-1
4.150494038E0,-9.117163718E-2,4.948008433E-2,-2.092213482E-1
4.152604979E0,-2.535090782E-2,6.826419383E-2,-1.899790913E-1
4.154710355E0,2.794708498E-2,4.245513305E-2,-1.904372424E-1
4.156818490E0,5.329799280E-2,-2.596177394E-3,-1.930334121E-1
4.158925739E0,3.878994286E-2,-4.886921961E-3,-1.818851233E-1
4.161032520E0,-2.535090782E-2,4.413501546E-2,-1.779145002E-1
4.163143177E0,-5.467243865E-2,4.550946131E-2,-1.861611903E-1
4.165251555E0,-4.123340547E-2,5.757404864E-2,-1.997529417E-1
4.167360554E0,1.114829071E-2,8.735372871E-2,-2.170098722E-1
4.169466520E0,4.856378585E-2,5.436700583E-2,-2.331978083E-1
4.171566150E0,4.688390717E-2,-1.572977938E-2,-2.393064648E-1
4.173685627E0,4.673119262E-2,-4.734205827E-2,-2.295326144E-1
4.175792489E0,4.963280261E-2,-1.374446787E-3,-2.040289938E-1
4.177903533E0,3.207042441E-2,8.827003092E-2,-1.598939747E-1
4.180008687E0,-4.581489484E-4,1.006400511E-1,-1.243110746E-1
