"Time (s)","Acceleration x (m/s^2)","Acceleration y (m/s^2)","Acceleration z (m/s^2)"
1.116449997E-2,-2.694396973E-1,1.169068909E-1,9.722731476E0
2.121449995E-2,-2.625540161E-1,1.002914429E-1,9.813293152E0
3.126449999E-2,-2.242337036E-1,8.502319336E-2,9.728419647E0
4.131349997E-2,-2.139051819E-1,7.289840698E-2,9.759854279E0
5.136349995E-2,-1.809736633E-1,6.990463257E-2,9.790390778E0
6.141349999E-2,-1.456471252E-1,8.307723999E-2,9.732461243E0
7.146349997E-2,-1.302291870E-1,9.729766846E-2,9.781858521E0
8.151249995E-2,-1.332229614E-1,1.014889526E-1,9.763297119E0
9.156249999E-2,-1.555265808E-1,1.161584473E-1,9.767039337E0
1.016125000E-1,-1.654060364E-1,1.149609375E-1,9.763297119E0
1.116614999E-1,-1.811233521E-1,1.116677856E-1,9.757608948E0
1.217115000E-1,-1.785786438E-1,1.047821045E-1,9.778116302E0
1.317615000E-1,-1.916015625E-1,8.322692871E-2,9.775571594E0
1.418104999E-1,-1.824705505E-1,7.664062500E-2,9.740394745E0
1.518605000E-1,-1.589694214E-1,7.484436035E-2,9.780361633E0
1.619105000E-1,-1.462458801E-1,7.244934082E-2,9.754764862E0
1.719594999E-1,-1.332229614E-1,8.487350464E-2,9.746681671E0
1.820095000E-1,-1.450483704E-1,8.771759033E-2,9.777517548E0
1.920595000E-1,-1.434017944E-1,9.385482788E-2,9.796528015E0
2.021085000E-1,-1.681004333E-1,9.475296021E-2,9.700577545E0
2.121585000E-1,-2.245330811E-1,1.029858398E-1,9.848919067E0
2.222085000E-1,-2.650987244E-1,1.125659180E-1,9.755513306E0
2.322584999E-1,-2.716850281E-1,1.187031555E-1,9.760453033E0
2.423075000E-1,-2.662962341E-1,1.115180969E-1,9.807754669E0
2.523575000E-1,-2.417472839E-1,9.520202637E-2,9.755662994E0
2.624074999E-1,-2.098635864E-1,9.205856323E-2,9.780361633E0
2.724565000E-1,-1.893562317E-1,8.023315430E-2,9.773326263E0
2.825065000E-1,-1.966909790E-1,8.173004150E-2,9.756561127E0
2.925564999E-1,-1.746867371E-1,8.412506104E-2,9.776619415E0
3.026055000E-1,-1.625619507E-1,8.711883545E-2,9.729916534E0
3.126555000E-1,-1.471440125E-1,9.131011963E-2,9.783954163E0
3.227054999E-1,-1.523831177E-1,9.804611206E-2,9.790091400E0
3.327545000E-1,-1.724414062E-1,1.029858398E-1,9.744885406E0
3.428045000E-1,-2.019300842E-1,9.909393311E-2,9.803413696E0
3.528545000E-1,-2.441423035E-1,9.999206543E-2,9.772877197E0
3.629035000E-1,-2.570155334E-1,9.175918579E-2,9.743687897E0
3.729535000E-1,-2.595602417E-1,9.310638428E-2,9.802365875E0
3.830035000E-1,-2.418969727E-1,9.595046997E-2,9.757608948E0
3.930525000E-1,-2.357597351E-1,1.011895752E-1,9.757159882E0
4.031025000E-1,-2.074685669E-1,1.077758789E-1,9.786798248E0
4.131525000E-1,-1.755848694E-1,1.056802368E-1,9.764195251E0
4.232025000E-1,-1.469943237E-1,1.047821045E-1,9.762997742E0
4.332515000E-1,-1.422042847E-1,1.022373962E-1,9.785151672E0
4.433015000E-1,-1.290316772E-1,9.924362183E-2,9.757608948E0
4.533515000E-1,-1.465452576E-1,8.951385498E-2,9.753866730E0
4.634005000E-1,-1.553768921E-1,9.340576172E-2,9.839338989E0
4.734505000E-1,-1.616638184E-1,8.756790161E-2,9.724976807E0
4.835005000E-1,-1.902543640E-1,9.864486694E-2,9.721084900E0
4.935495000E-1,-2.088157654E-1,8.891510010E-2,9.800569611E0
5.035995000E-1,-2.477348328E-1,7.873626709E-2,9.772727509E0
5.136495000E-1,-2.499801636E-1,9.071136475E-2,9.758507080E0
5.236985000E-1,-2.249821472E-1,9.250762939E-2,9.793534241E0
5.337485000E-1,-1.695973206E-1,1.161584473E-1,9.740993500E0
5.437985000E-1,-1.508862305E-1,1.146615601E-1,9.756261749E0
5.538474999E-1,-1.341210938E-1,1.143621826E-1,9.810449066E0
5.638975000E-1,-1.706451416E-1,1.034349060E-1,9.812095642E0
5.739475000E-1,-5.610333252E-1,8.637039185E-2,9.729467468E0
5.839964999E-1,-1.540296936E0,1.332229614E-1,9.690398712E0
5.940465000E-1,-1.129102020E0,-2.652484131E-1,9.698481903E0
6.040965000E-1,-1.323996735E0,-4.102967834E-1,9.839488678E0
6.141465000E-1,-1.700164490E0,-4.462220764E-1,9.755064240E0
6.241955000E-1,-1.677561493E0,-3.353027344E-1,9.753866730E0
6.342455000E-1,-1.515897675E0,-2.347119141E-1,9.767338715E0
6.442955000E-1,-1.451681213E0,-2.483335876E-1,9.743987274E0
6.543445000E-1,-1.526974640E0,-2.095642090E-1,9.763297119E0
6.643945000E-1,-1.599573669E0,8.711883545E-2,9.761800232E0
6.744444999E-1,-1.589544525E0,3.028202820E-1,9.801467743E0
6.844935000E-1,-1.440304871E0,2.881507874E-1,9.742640076E0
6.945435000E-1,-1.415157166E0,1.601669312E-1,9.670490112E0
7.045934999E-1,-1.450034637E0,1.642085266E-1,9.765392761E0
7.146425000E-1,-1.292262726E0,1.924996948E-1,9.765692139E0
7.246890000E-1,-1.332229614E0,1.203497314E-1,9.772727509E0
7.347390000E-1,-1.386117554E0,2.414479065E-1,9.711055756E0
7.447880000E-1,-1.108145599E0,2.748284912E-1,9.757908325E0
7.548380000E-1,-1.259480896E0,2.049238586E-1,9.801767120E0
7.648880000E-1,-1.524280243E0,1.013392639E-1,9.742191010E0
7.749370000E-1,-1.826202393E0,1.901046753E-1,9.773925018E0
7.849870000E-1,-1.975891113E0,4.719685364E-1,9.721234589E0
7.950370000E-1,-2.254461823E0,2.885998535E-1,9.738598480E0
8.050870000E-1,-2.418670349E0,-2.230361938E-2,9.753267975E0
8.151360000E-1,-2.261497192E0,3.936813354E-2,9.750274200E0
8.251860000E-1,-1.363215179E0,4.303550720E-1,9.715546417E0
8.352360000E-1,-1.540296936E0,3.227288818E-1,9.723330231E0
8.452850000E-1,-2.381846924E0,1.175056458E-1,9.717342682E0
8.553350000E-1,-2.569855957E0,3.243754578E-1,9.739047546E0
8.653850000E-1,-1.773661652E0,7.566764832E-1,9.767488403E0
8.754340000E-1,-2.297123108E0,4.433779907E-1,9.709858246E0
8.854840000E-1,-2.433938599E0,2.335144043E-2,9.777667236E0
8.955340000E-1,-1.939965820E0,-1.079255676E-1,9.761201477E0
9.055830000E-1,-1.077010345E0,-2.442919922E-1,9.692644043E0
9.156330000E-1,-1.294358368E0,-4.062551880E-1,9.732910309E0
9.256830000E-1,-1.310075684E0,-2.233355713E-1,9.781559143E0
9.357320000E-1,-1.006057892E0,1.047821045E-3,9.702373810E0
9.457820000E-1,-4.189787292E-1,5.539979553E-1,9.804012451E0
9.558319999E-1,-5.520520020E-1,3.167413330E-1,9.808054047E0
9.658810000E-1,-2.365680542E0,-2.478845215E-1,9.742490387E0
9.759310000E-1,-1.776505737E0,2.862048340E-1,9.761201477E0
9.859809999E-1,-1.288819885E-1,5.974076843E-1,9.780810699E0
9.960310000E-1,-1.152603149E0,-3.652404785E-1,9.716444550E0
1.006080000E0,-1.877545624E0,-4.625381470E-1,9.751771088E0
1.016130000E0,-1.766626282E0,-3.948788452E-1,9.744586029E0
1.026180000E0,-2.085313568E0,-5.096900940E-1,9.743089142E0
1.036229000E0,-6.087840271E-1,-1.426533508E-1,9.770781555E0
1.046279000E0,-6.870712280E-2,-3.161425781E-1,9.758507080E0
1.056329000E0,-7.339237976E-1,-6.923103333E-1,9.760003967E0
1.066378000E0,-1.573527832E0,-8.665480042E-1,9.881551208E0
1.076428000E0,-3.236270142E-1,-2.642005920E-1,9.684710541E0
1.086478000E0,7.674540710E-1,-2.427951050E-1,9.786049805E0
1.096527000E0,1.658551025E-1,-3.888912964E-1,9.728719025E0
1.106577000E0,-8.976832581E-1,-4.067042542E-1,9.742490387E0
1.116627000E0,-1.363215179E0,-2.028282166E-1,9.762848053E0
1.126676000E0,-2.826123047E-1,1.893562317E-1,9.820478210E0
1.136726000E0,1.131646729E-1,5.748046875E-2,9.788744202E0
1.146776000E0,-7.921527100E-1,-4.444258118E-1,9.774972839E0
1.156826000E0,-1.295705566E0,-5.170248413E-1,9.735455017E0
1.166875000E0,-4.143383789E-1,1.341210938E-1,9.761051788E0
1.176925000E0,1.259331207E0,7.285350037E-1,9.824819183E0
1.186975000E0,-1.484912109E-1,1.519340515E-1,9.757010193E0
1.197024000E0,-1.360670471E-1,1.675016785E-1,9.810898132E0
1.207074000E0,1.298399963E0,6.616241455E-1,9.818681946E0
1.217124000E0,1.635349274E0,2.844085693E-1,9.767189026E0
1.227173000E0,1.247356110E0,-6.950047302E-1,9.765841827E0
1.237223000E0,1.163680115E0,-1.090632019E0,9.815837860E0
1.247273000E0,1.190025330E-1,-1.235081635E0,9.661059723E0
1.257322000E0,6.942562866E-1,-4.279600525E-1,9.795180817E0
1.267372000E0,1.484612732E0,2.653981018E-1,9.639055481E0
1.277422000E0,1.728904724E0,5.399272156E-1,9.915081482E0
1.287471000E0,2.253713379E0,6.357279968E-1,9.878707123E0
1.297521000E0,2.811902618E0,4.996609497E-1,9.806706848E0
1.307571000E0,3.566034393E0,1.612147522E-1,9.813143463E0
1.317621000E0,4.637955322E0,9.449848938E-1,9.773176575E0
1.327670000E0,5.294490051E0,1.163081360E0,9.858798523E0
1.337720000E0,5.523513794E0,6.795867920E-1,9.796078949E0
1.347770000E0,5.716462555E0,2.821632385E-1,9.819131012E0
1.357819000E0,5.870941315E0,3.309617615E-1,9.833800507E0
1.367869000E0,5.377118225E0,2.311193848E-1,9.833201752E0
1.377919000E0,4.347409515E0,-2.287243652E-1,1.005025040E1
1.387968000E0,4.002975769E0,-3.902384949E-1,9.947713623E0
1.398018000E0,3.698209534E0,-4.309538269E-1,9.480535126E0
1.408068000E0,2.451452179E0,-4.165837097E-1,9.757159882E0
1.418117000E0,-1.936972046E-1,2.535726929E-1,9.897867279E0
1.428167000E0,-9.131011963E-2,1.517843628E-1,9.710906067E0
1.438217000E0,-6.301895142E-2,1.350192261E-1,9.698930969E0
1.448266000E0,-9.999206543E-2,1.249900818E-1,9.771230621E0
1.458316000E0,-8.232879639E-2,1.227447510E-1,9.745334473E0
1.468366000E0,-6.735992432E-2,1.399589539E-1,9.749525757E0
1.478416000E0,-4.415817261E-2,1.594184875E-1,9.776320038E0
1.488465000E0,-1.017883301E-2,1.628613281E-1,9.802365875E0
1.498515000E0,7.424560547E-2,1.910028076E-1,9.779912567E0
1.508565000E0,7.289840698E-1,5.653742981E-1,9.887089691E0
1.518614000E0,8.375083923E-1,5.682183838E-1,9.702074432E0
1.528664000E0,-9.165440369E-1,-9.093589783E-1,9.814490662E0
1.538714000E0,2.069147186E0,9.395960999E-1,9.716594238E0
1.548763000E0,2.538121948E0,4.590953064E-1,9.550140381E0
1.558813000E0,2.402953033E0,-2.564167786E-1,9.883347473E0
1.568863000E0,3.997736664E0,9.729766846E-2,9.851613464E0
1.578912000E0,3.817661133E0,-4.399351501E-1,9.816436615E0
1.588962000E0,4.544998627E0,-4.327500916E-1,9.875863037E0
1.599012000E0,4.059408417E0,-1.297801208E0,9.792486420E0
1.609061000E0,2.339934082E0,-1.811233521E0,9.804760895E0
1.619111000E0,1.591191101E0,-1.349294128E0,9.854158173E0
1.629161000E0,2.653981018E0,-2.649490356E-2,9.861043854E0
1.639211000E0,3.127596130E0,2.412982178E-1,9.800719299E0
1.649260000E0,2.501747589E0,-2.823129272E-1,9.816137238E0
1.659310000E0,2.539469147E0,-4.123924255E-1,9.808652802E0
1.669360000E0,2.593656464E0,-4.764591980E-1,9.726773071E0
1.679409000E0,2.613415375E0,-1.893562317E-1,9.883197784E0
1.689459000E0,1.876797180E0,-7.394622803E-2,9.712402954E0
1.699509000E0,9.654922485E-1,3.420387268E-1,9.744885406E0
1.709558000E0,1.324445801E0,4.222718811E-1,9.816137238E0
1.719608042E0,2.137105865E0,7.566764832E-1,9.760752411E0
1.729658042E0,1.897154846E0,6.469546509E-1,9.867181091E0
1.739707042E0,1.784888306E0,6.381230164E-1,9.723479919E0
1.749757042E0,5.376818848E-1,3.186872864E-1,9.767189026E0
1.759807042E0,1.208886108E0,9.849517822E-2,9.827363892E0
1.769856042E0,1.375789032E0,2.770738220E-1,9.832004242E0
1.779906042E0,1.483415222E0,6.271957397E-1,9.830207977E0
1.789956042E0,1.653311920E0,8.452922058E-1,9.743687897E0
1.800005042E0,1.644031219E0,6.129753113E-1,9.793384552E0
1.810055042E0,1.445394287E0,3.296145630E-1,9.748477936E0
1.820105042E0,1.696272583E0,2.859054565E-2,9.834249573E0
1.830155042E0,1.163680115E0,-2.522254944E-1,9.745184784E0
1.840204042E0,1.724563751E0,-8.771759033E-2,9.786798248E0
1.850254042E0,1.626367950E0,1.887574768E-1,9.779164124E0
1.860304042E0,1.074914703E0,6.586303711E-3,9.798024902E0
1.870353042E0,3.299139404E-1,-4.185296631E-1,9.835896149E0
1.880403042E0,1.816173248E0,-2.511776733E-1,9.706265717E0
1.890453042E0,1.465302887E0,-5.504054260E-1,9.816436615E0
1.900502042E0,1.030906219E0,-6.203100586E-1,9.783505096E0
1.910552042E0,5.592370605E-1,-3.891906738E-2,9.771380310E0
1.920602042E0,1.287322998E-1,3.600013733E-1,9.740394745E0
1.930651042E0,-2.113604736E-1,8.277786255E-2,9.781858521E0
1.940701042E0,3.817062378E-2,-5.164260864E-2,9.775571594E0
1.950751042E0,-5.947132874E-1,-8.217910767E-2,9.747280426E0
1.960800042E0,2.140548706E-1,4.236190796E-1,9.803264008E0
1.970850042E0,3.390449524E-1,2.404000854E-1,9.770332489E0
1.980900042E0,7.274871826E-2,-2.032772827E-1,9.740095367E0
1.990949042E0,4.418811035E-1,2.291734314E-1,9.749974823E0
2.000999042E0,-7.964936829E-1,-3.812571716E-1,9.863588562E0
2.011049042E0,1.096020813E0,-1.758842468E-1,9.692644043E0
2.021099042E0,-1.865121460E-1,-4.945715332E-1,9.839189301E0
2.031148042E0,-1.951940918E-1,2.417472839E-1,9.664203186E0
2.041198042E0,2.387385406E0,6.521937561E-1,9.864786072E0
2.051248042E0,3.698059845E0,-4.595443726E-2,9.758806458E0
2.061297042E0,1.413061523E-1,-4.772076416E-1,9.729018402E0
2.071347042E0,-2.895279236E0,-1.188977509E0,9.653874664E0
2.081397042E0,1.070723419E0,-1.616638184E-2,9.791887665E0
2.091446042E0,4.843927002E-1,4.429289246E-1,9.877509613E0
2.101496042E0,-1.250649261E0,3.454815674E-1,9.659562836E0
2.111546042E0,-8.554710388E-1,6.023474121E-1,9.716743927E0
2.121595042E0,-4.679269409E-1,1.448837128E0,9.787546692E0
2.131645042E0,-1.757495270E0,1.027762756E0,9.755662994E0
2.141695042E0,-4.525090027E-1,6.577322388E-1,9.776769104E0
2.151744042E0,-3.562591553E-2,7.165599060E-1,9.830956421E0
2.161794042E0,-1.496438141E0,8.038284302E-2,9.722432098E0
2.171844042E0,-2.133513336E0,-4.255650330E-1,9.685309296E0
2.181893042E0,-7.831713867E-1,4.213737488E-1,9.815538483E0
2.191943042E0,-2.369722137E0,-2.029779053E-1,9.614506531E0
2.201993042E0,-1.234033813E0,-3.712280273E-2,9.873318329E0
2.212043042E0,-9.764195251E-1,1.790277100E-1,9.747130737E0
2.222092042E0,-1.983525238E0,-2.170486450E-1,9.720037079E0
2.232142042E0,-1.130598907E0,6.122268677E-2,9.709109802E0
2.242192042E0,3.659889221E-1,1.874102783E-1,9.830507355E0
2.252241042E0,-2.350412292E0,-1.183888092E0,9.614356842E0
2.262291042E0,-8.184979248E-1,-3.454815674E-1,9.830956421E0
2.272341042E0,1.473086700E0,-1.332229614E-2,9.838590546E0
2.282390042E0,1.686991882E-1,-1.363813934E0,9.846374359E0
2.292440042E0,2.544708252E-2,-1.038989410E0,9.775122528E0
2.302490042E0,-8.277786255E-2,-7.933502197E-1,9.737101593E0
2.312539042E0,1.279838562E-1,-1.078207855E0,9.719138947E0
2.322589042E0,-7.463479614E-1,-1.675765228E0,9.726623383E0
2.332639042E0,4.978646851E-1,-1.460063782E0,9.780211945E0
2.342688042E0,8.446934509E-1,-7.223977661E-1,9.713450775E0
2.352738042E0,-1.044078827E0,-1.172362061E0,9.751471710E0
2.362788042E0,1.283880157E0,-6.616241455E-2,9.850865021E0
2.372837042E0,-7.677534485E-1,-1.088686066E0,9.725276184E0
2.382887042E0,1.437909851E0,-5.673202515E-1,9.620194702E0
2.392937042E0,3.963757324E-1,-7.954458618E-1,9.755363617E0
2.402987042E0,-1.956431580E-1,-9.653425598E-1,9.745484161E0
2.413036042E0,-5.465135193E-1,-5.128335571E-1,9.980196075E0
2.423086042E0,7.066804504E-1,5.670208740E-1,1.020472916E1
2.433136042E0,-7.069798279E-1,5.912704468E-2,9.366023254E0
2.443185042E0,-1.886377258E0,-8.810678101E-1,9.558672638E0
2.453235042E0,-3.070115662E-1,-3.288661194E-1,9.628128204E0
2.463285042E0,-1.009949799E0,-2.814147949E-2,9.626331940E0
2.473334042E0,-2.091450806E0,1.442999268E-1,9.393565979E0
2.483384042E0,-2.428849182E0,-1.619631958E-1,1.004800507E1
2.493434042E0,-1.420396271E0,-2.803669739E-1,9.697134705E0
2.503483042E0,-1.099912720E0,-4.751119995E-1,8.664881287E0
2.513533042E0,-3.429518280E0,-1.125659180E0,1.035935760E1
2.523583042E0,-4.640200653E0,-7.200027466E-1,1.075408676E1
2.533632042E0,-3.087629242E0,-6.870712280E-2,9.384135590E0
2.543682042E0,-3.954776001E0,6.316864014E-2,9.856253815E0
2.553732042E0,-5.863157501E0,-7.888595581E-2,9.809850311E0
2.563781042E0,-6.775210876E0,-1.856140137E-1,9.736053772E0
2.573831042E0,-6.983427887E0,1.025367737E-1,9.605076141E0
2.583881042E0,-7.144642639E0,5.306465149E-1,9.973609772E0
2.593930042E0,-7.082671509E0,3.911366272E-1,9.495054932E0
2.603980042E0,-7.274273071E0,3.686833191E-1,9.425150299E0
2.614030042E0,-8.021968231E0,2.742297363E-1,9.841135254E0
2.624079042E0,-8.225993958E0,-4.707710266E-1,9.695039063E0
2.634129042E0,-2.984942780E0,-1.488504639E0,9.850715332E0
2.644179042E0,-8.300239563E-1,4.477189636E-1,9.858349457E0
2.654229042E0,-4.609514465E0,5.942642212E-2,9.667047272E0
2.664278042E0,-5.145250397E0,-6.839277649E-1,9.552086334E0
2.674328042E0,-4.290078735E0,-6.322851562E-1,9.710756378E0
2.684378042E0,-3.572920074E0,-2.429447937E-1,9.706714783E0
2.694427042E0,-3.795656891E0,-1.416055298E-1,9.796827393E0
2.704477042E0,-4.439019012E0,-4.275109863E-1,9.586664429E0
2.714527042E0,-4.885989532E0,-4.146377563E-1,9.629176025E0
2.724575625E0,-3.036884766E0,-3.462300110E-1,1.134924911E1
2.734625625E0,-5.017116852E0,-1.019679565E0,8.100554810E0
2.744675625E0,-4.030967560E0,1.637594604E-1,1.010114456E1
2.754724625E0,-3.858526154E0,2.891986084E-1,9.799821167E0
2.764774625E0,-4.277355194E0,-2.049238586E-1,9.710307312E0
2.774824625E0,-4.289629669E0,-5.141807556E-1,9.711804199E0
2.784873625E0,-4.053720245E0,-3.784130859E-1,9.863887939E0
2.794923625E0,-4.698579254E0,-3.875440979E-1,9.747430115E0
2.804973625E0,-4.555027771E0,-1.067280579E-1,9.811496887E0
2.815022625E0,-5.651497650E0,-7.414082336E-1,9.876910858E0
2.825072625E0,-4.584067383E0,-1.245709534E0,9.869875488E0
2.835122625E0,-4.235741730E0,-1.414708099E0,9.422755280E0
2.845172625E0,-4.146527252E0,-1.029559021E0,9.664801941E0
2.855221625E0,-2.804867249E0,-1.031504974E0,9.556726685E0
2.865271625E0,-2.334994354E0,-4.219725037E-1,9.641899567E0
2.875321625E0,-2.033521271E0,-8.023315430E-1,9.786648560E0
2.885370625E0,-2.514471130E0,-9.270222473E-1,9.294022980E0
2.895420625E0,-3.215313721E0,-4.355941772E-1,9.597442017E0
2.905470625E0,-2.686613159E0,-3.382965088E-2,9.362580414E0
2.915519625E0,-2.138153687E0,-1.616638184E-1,1.052985306E1
2.925569625E0,-1.787882080E0,-5.842350769E-1,9.596843262E0
2.935619625E0,-1.396446075E0,-1.108744354E0,9.792037354E0
2.945668625E0,8.816665649E-2,-6.828799438E-1,9.790241089E0
2.955718625E0,-2.146536255E-1,-6.113287354E-1,9.727222137E0
2.965768625E0,-1.069525909E0,-3.954776001E-1,9.809850311E0
2.975817625E0,-1.615141296E0,-3.382965088E-2,9.658964081E0
2.985867625E0,-2.149829407E0,-1.974394226E-1,9.603279877E0
2.995917625E0,-2.049837341E0,-5.869294739E-1,9.793683929E0
3.005966625E0,-1.178499298E0,-1.655557251E-1,9.683662720E0
3.016016625E0,-1.185085602E0,-3.345542908E-1,9.668244781E0
3.026066625E0,-1.557810516E0,-8.801696777E-2,9.748178558E0
3.036115625E0,-2.186952209E-1,7.147636414E-1,9.701475677E0
3.046165625E0,-1.290316772E0,-3.278182983E-2,9.731712799E0
3.056215625E0,-8.568182373E-1,4.644841003E-1,9.839189301E0
3.066264625E0,-1.232237549E0,-4.376898193E-1,1.000684067E1
3.076314625E0,-2.633024597E-1,-6.104306030E-1,9.618398438E0
3.086364625E0,-1.044827271E-1,-1.289418640E0,9.828262024E0
3.096414625E0,5.192701721E-1,-9.452842712E-1,9.589658203E0
3.106463625E0,1.159488831E0,-5.037025452E-1,9.629176025E0
3.116513625E0,1.402433624E0,-3.016227722E-1,9.663005676E0
3.126563625E0,5.008584595E-1,-2.483335876E-1,9.682165833E0
3.136612625E0,7.514373779E-1,1.257385254E-2,9.885143738E0
3.146662625E0,9.699829102E-2,-1.442999268E-1,9.730964355E0
3.156712625E0,-9.958790588E-1,4.041595459E-1,9.694140930E0
3.166761625E0,4.927752686E-1,5.739065552E-1,9.950707397E0
3.176811625E0,-3.906875610E-2,-1.833686829E-1,9.817484436E0
3.186861625E0,-3.047662354E-1,7.373666382E-1,9.763746185E0
3.196910625E0,-1.161584473E-1,6.478527832E-1,9.696386261E0
3.206960625E0,-8.047265625E-1,2.727328491E-1,9.671388245E0
3.217010625E0,1.526824951E-2,6.445596313E-1,9.925709381E0
3.227059625E0,-5.668711853E-1,3.769161987E-1,9.791737976E0
3.237109625E0,6.156697083E-1,1.501377869E-1,9.750872955E0
3.247159625E0,2.338137817E-1,-2.007325745E-1,9.773625641E0
3.257208625E0,1.305884399E0,3.065625000E-1,9.742041321E0
3.267258625E0,1.303190002E0,-4.044589233E-1,9.647587738E0
3.277308625E0,1.666634216E0,-7.753875732E-2,9.775122528E0
3.287357625E0,1.639540558E0,3.188369751E-2,9.865235138E0
3.297407625E0,1.400188293E0,1.005908203E-1,9.829908600E0
3.307457625E0,7.559280396E-1,3.375480652E-1,9.687105560E0
3.317506625E0,3.926335144E-1,-5.718109131E-2,9.511371002E0
3.327556625E0,6.251000977E-1,-2.748284912E-1,9.998158722E0
3.337606625E0,4.373904419E-1,-2.477348328E-1,9.837243347E0
3.347656625E0,8.671467590E-1,-1.767823792E-1,9.773176575E0
3.357705625E0,1.053060150E0,8.801696777E-2,9.878856812E0
3.367755625E0,1.262774048E0,-1.347198486E-2,9.820178833E0
3.377805625E0,1.785337372E0,7.753875732E-2,9.728419647E0
3.387854625E0,2.272274780E0,4.537065125E-1,9.825867004E0
3.397904625E0,2.550396423E0,3.366499329E-1,9.822723541E0
3.407954625E0,2.880759430E0,2.005828857E-2,9.759405212E0
3.418003625E0,2.376158752E0,3.393443298E-1,9.777517548E0
3.428053625E0,2.520009613E0,3.288661194E-1,9.848320312E0
3.438103625E0,3.291505280E0,2.435435486E-1,9.938732300E0
3.448152625E0,3.671415253E0,-1.658551025E-1,9.769434357E0
3.458202625E0,4.156107330E0,-3.558100891E-1,9.831255798E0
3.468252625E0,4.737348633E0,-5.637277222E-1,9.936936035E0
3.478301625E0,5.193899231E0,2.362088013E-1,1.005563919E1
3.488351625E0,5.955365753E0,-1.257385254E-1,1.003438339E1
3.498401625E0,8.018226013E0,1.063238983E0,9.957144012E0
3.508450625E0,8.771010590E0,7.801776123E-1,8.746461639E0
3.518500625E0,8.962612152E0,-5.366340637E-1,9.915680237E0
3.528550625E0,8.167465668E0,-1.608854370E0,1.001672012E1
3.538600625E0,8.400081940E0,-1.995799713E0,9.501042480E0
3.548649625E0,6.809489594E0,-2.499502258E0,9.736951904E0
3.558699625E0,4.733007660E0,-6.249504089E-1,1.002180954E1
3.568749625E0,4.377197571E0,-7.394622803E-2,9.643995209E0
3.578798625E0,4.317771149E0,-6.402186584E-1,9.878557434E0
3.588848625E0,4.889731750E0,-3.100053406E-1,9.740245056E0
3.598898625E0,5.018613739E0,-1.369801483E0,9.704768829E0
3.608947625E0,4.447102203E0,-8.901988220E-1,1.046054718E1
3.618997625E0,5.564528503E0,-7.357200623E-1,8.792116699E0
3.629047625E0,5.350922699E0,-1.846709747E0,9.255253601E0
3.639096625E0,5.045707397E0,-6.632707214E-1,1.001103195E1
3.649146625E0,4.470902710E0,-5.963598633E-1,9.798473969E0
3.659196625E0,4.914879456E0,-4.513114929E-1,9.774823151E0
3.669245625E0,5.776338043E0,-4.311035156E-2,1.045485901E1
3.679295625E0,5.412444763E0,-1.456620941E0,9.504335632E0
3.689345625E0,4.767136688E0,-2.032024384E0,9.821076965E0
3.699394625E0,4.048331451E0,-1.930086365E0,9.966275024E0
3.709444625E0,4.347858582E0,-1.170116730E0,9.801318054E0
3.719494625E0,3.008743286E0,-6.908134460E-1,9.913883972E0
3.729543750E0,3.081791382E0,2.712359619E-1,9.724827118E0
3.739593750E0,-1.417552185E-1,-3.031196594E-1,9.678872681E0
3.749643750E0,2.508333893E0,8.994795227E-1,9.934541016E0
3.759693750E0,2.835852814E0,-6.442602539E-1,9.722282410E0
3.769742750E0,1.146615601E0,-6.976991272E-1,9.811347198E0
3.779792750E0,9.939331055E-1,-4.936734009E-1,9.857301636E0
3.789842750E0,3.013683014E0,7.484436035E-1,9.778415680E0
3.799891750E0,-1.672322388E0,-8.946894836E-1,9.677375793E0
3.809941750E0,6.496490479E-1,1.411265259E0,9.792486420E0
3.819991750E0,2.340832214E0,4.200265503E-1,9.858050079E0
3.830040750E0,-6.831793213E-1,-1.106948090E0,9.676178284E0
3.840090750E0,1.611249390E0,2.751278687E-1,9.783056030E0
3.850140750E0,2.088906097E0,3.194357300E-1,9.788444824E0
3.860189750E0,-9.258247375E-1,-1.230740662E0,9.870324554E0
3.870239750E0,2.477947083E0,4.641847229E-1,9.793534241E0
3.880289750E0,3.106639709E0,2.115101624E-1,9.748178558E0
3.890338750E0,-2.037862244E0,-1.464554443E0,9.686506805E0
3.900388750E0,2.890938263E0,2.775228882E-1,9.828860779E0
3.910438750E0,2.362387390E0,-8.672964478E-1,9.806706848E0
3.920487750E0,-4.131408691E-1,-1.047371979E0,9.750573578E0
3.930537750E0,1.549128571E0,6.556365967E-2,9.857151947E0
3.940587750E0,-1.031355286E-1,-5.517526245E-1,9.686506805E0
3.950637750E0,6.608757019E-1,-1.429527283E-1,9.744136963E0
3.960686750E0,9.750723267E-1,-1.817221069E-1,9.908644867E0
3.970736750E0,1.956431580E-1,-2.140548706E-2,9.708211670E0
3.980786750E0,8.647517395E-1,9.026229858E-2,9.753267975E0
3.990835750E0,3.769161987E-1,-3.418890381E-1,9.720186768E0
4.000885750E0,2.495310974E-1,2.020797729E-1,9.756411438E0
4.010935750E0,-4.806504822E-1,8.602610779E-1,9.728269958E0
4.020984750E0,-1.741179199E0,9.852511597E-1,9.721384277E0
4.031034750E0,-1.135688324E0,8.574169922E-1,9.825417938E0
4.041084750E0,-6.237528992E-1,7.304809570E-1,9.769434357E0
4.051133750E0,-1.997745667E0,1.673519897E-1,9.810449066E0
4.061183750E0,-1.248403931E0,6.960525513E-1,9.624236298E0
4.071233750E0,-1.997296600E0,1.296304321E-1,9.754615173E0
4.081282750E0,-1.596879272E0,6.090834045E-1,9.738598480E0
4.091332750E0,-1.806443481E0,7.743397522E-1,9.713151398E0
4.101382750E0,-1.929337921E0,4.430786133E-2,9.756261749E0
4.111431750E0,4.830455017E-1,5.577401733E-1,9.772128754E0
4.121481750E0,-1.400188293E0,-3.275189209E-1,9.722731476E0
4.131531750E0,3.619473267E-1,-1.311273193E-1,9.701325989E0
4.141580750E0,-4.158352661E-1,-7.695497131E-1,9.828561401E0
4.151630750E0,-1.846410370E0,-9.089099121E-1,9.644294586E0
4.161680750E0,-6.867718506E-1,-4.758604431E-1,9.754465485E0
4.171729750E0,-5.557942200E-1,-1.100062408E0,9.893077240E0
4.181779750E0,2.893482971E-1,-9.554631042E-1,9.761650543E0
4.191829750E0,-1.049916687E0,-1.157093811E0,9.694290619E0
4.201879750E0,-2.439028015E0,-1.330283661E0,9.719138947E0
4.211928750E0,-1.833986206E0,-7.144642639E-1,9.652677155E0
4.221978750E0,-1.798060913E0,-5.914201355E-1,9.690249023E0
4.232028750E0,-1.483265533E0,-5.822891235E-1,9.827962646E0
4.242077750E0,-2.868784332E0,-1.203347626E0,9.750723267E0
4.252127750E0,-3.208278351E0,-8.415499878E-1,9.729467468E0
4.262177750E0,-3.394341431E0,-7.027885437E-1,9.585317230E0
4.272226750E0,-3.163521423E0,-6.252497864E-1,9.616452484E0
4.282276750E0,-2.385888519E0,-2.399510193E-1,9.284891968E0
4.292326750E0,-3.854484558E0,-6.694079590E-1,9.419611816E0
4.302375750E0,-3.822151794E0,-6.557862854E-1,1.035187317E1
4.312425750E0,-4.130809937E0,-1.007255402E0,9.911488953E0
4.322475750E0,-4.325554962E0,-7.235952759E-1,9.754315796E0
4.332524750E0,-4.493954773E0,-6.749464417E-1,9.671687622E0
4.342574750E0,-4.739893341E0,-8.099656677E-1,9.666598206E0
4.352624750E0,-4.601131897E0,-6.156697083E-1,9.692793732E0
4.362673750E0,-4.920268250E0,-5.538482666E-1,9.952653351E0
4.372723750E0,-5.959856415E0,-3.805087280E-1,9.700427856E0
4.382773750E0,-6.066285095E0,2.484832764E-2,9.133257294E0
4.392822750E0,-5.980962524E0,2.284249878E-1,9.583371277E0
4.402872750E0,-6.039490814E0,1.914518738E-1,1.002600082E1
4.412922750E0,-6.181695099E0,2.023791504E-1,9.759405212E0
4.422971750E0,-6.603368225E0,2.228865051E-1,8.920250244E0
4.433021750E0,-6.363566895E0,1.261875916E-1,9.917925568E0
4.443071750E0,-5.419330444E0,-8.668473816E-1,9.976603546E0
4.453121750E0,-2.650687866E0,-1.203197937E0,9.690847778E0
4.463170750E0,-1.429527283E-1,5.598358154E-2,9.570198669E0
4.473220750E0,-9.997709656E-1,-3.706292725E-1,9.462123413E0
4.483270750E0,-3.461252289E0,-1.409319305E0,9.458231506E0
4.493319750E0,-3.290756836E0,-7.289840698E-1,1.066592010E1
4.503369750E0,-9.360035706E-1,-5.149291992E-2,1.032672546E1
4.513419750E0,-3.059936829E0,-1.005908203E0,1.120435043E1
4.523468750E0,-6.802603912E0,-1.116528168E0,7.210805054E0
4.533518750E0,-4.970563660E0,1.216220856E0,9.798174591E0
4.543568750E0,-5.436844025E0,8.457412720E-2,9.749525757E0
4.553617750E0,-6.350394287E0,3.188369751E-2,9.704918518E0
4.563667750E0,-6.628815308E0,5.248086548E-1,9.590256958E0
4.573717750E0,-7.060367889E0,2.787203979E-1,9.689201202E0
4.583766750E0,-6.788832550E0,1.496887207E-1,9.560468903E0
4.593816750E0,-6.100563812E0,-2.574645996E-2,9.707912292E0
4.603866750E0,-6.496340790E0,-1.200503540E-1,9.481133881E0
4.613915750E0,-6.211333466E0,2.472857666E-1,9.359287262E0
4.623965750E0,-5.320236511E0,5.613327026E-1,1.045994843E1
4.634015750E0,-4.536915436E0,-3.891906738E-2,9.603878632E0
4.644064750E0,-3.904779968E0,-4.318519592E-1,1.036833893E1
4.654114750E0,-1.426683197E0,-6.004014587E-1,1.055530014E1
4.664164750E0,-4.070485382E0,-1.533560944E0,8.578361206E0
4.674213750E0,-5.145400085E0,5.867797852E-2,9.326206055E0
4.684263750E0,-4.412374420E0,-1.239422607E-1,9.355994110E0
4.694313750E0,-4.290378113E0,-9.394464111E-1,9.804611206E0
4.704362750E0,-3.620221710E0,-6.421646118E-1,9.719588013E0
4.714412750E0,-1.780098267E0,1.276844788E-1,9.527088318E0
4.724463042E0,-1.501377869E0,-9.795629883E-1,9.745035095E0
4.734513042E0,-1.775158539E0,-1.487307129E0,9.808802490E0
4.744562042E0,-1.884580994E-1,-1.237925720E0,9.838889923E0
4.754612042E0,-1.864373016E0,-1.197958832E0,9.743238831E0
4.764662042E0,-2.061213684E-1,-2.454895020E-2,9.773925018E0
4.774711042E0,-1.857936401E0,-7.135661316E-1,9.734706573E0
4.784761042E0,-5.947132874E-1,2.516267395E-1,9.686955872E0
4.794811042E0,-1.418001251E0,-3.858975220E-1,9.773026886E0
4.804860042E0,-1.184935913E0,-6.783892822E-1,9.776619415E0
4.814910042E0,1.853146362E-1,-6.036946106E-1,9.713001709E0
4.824960042E0,-6.313870239E-1,-8.144563293E-1,9.703122253E0
4.835009042E0,-5.390290833E-1,1.660047913E-1,9.736203461E0
4.845059042E0,-1.383273468E0,2.903961182E-1,9.715546417E0
4.855109042E0,-1.507964172E0,5.984555054E-1,9.755662994E0
4.865158042E0,-5.722599792E-1,3.293151855E-1,9.773625641E0
4.875208042E0,-7.397616577E-1,-7.053332520E-1,9.793683929E0
4.885258042E0,-2.881507874E-1,-6.548881531E-1,9.735005951E0
4.895307042E0,6.105802917E-1,-1.037941589E0,9.751771088E0
4.905357042E0,-1.877096558E-1,-1.251846771E0,9.816286926E0
4.915407042E0,-9.520202637E-2,-5.481600952E-1,9.695188751E0
4.925456042E0,7.334747314E-3,-6.137237549E-1,9.755363617E0
4.935506042E0,-8.373587036E-1,-6.500981140E-1,9.850266266E0
4.945556042E0,2.529739380E-1,-3.734733582E-1,9.631271667E0
4.955605042E0,-4.391867065E-1,-1.141376495E0,9.787397003E0
4.965655042E0,7.617658997E-1,-1.108894043E0,9.829609222E0
4.975705042E0,2.811154175E-1,-1.471140747E0,9.783205719E0
4.985754042E0,-1.374142456E-1,-1.353485413E0,9.668843536E0
4.995804042E0,1.833088074E0,-6.704557800E-1,9.863887939E0
5.005854042E0,9.518705750E-1,-7.806266785E-1,9.792935486E0
5.015904042E0,2.906954956E-1,-1.137634277E-2,9.713750153E0
5.025953042E0,1.424437866E0,8.741821289E-2,9.803862762E0
5.036003042E0,1.246308289E0,-5.254074097E-1,9.785750427E0
5.046053042E0,1.322350159E0,-3.839515686E-1,9.718839569E0
5.056102042E0,1.396446075E0,-6.075865173E-1,9.827513580E0
5.066152042E0,1.747466125E0,-5.275030518E-1,9.760003967E0
5.076202042E0,1.044527893E0,-2.168989563E-1,9.955198059E0
5.086251042E0,1.939217377E0,3.177891541E-1,9.735604706E0
5.096301042E0,1.043330383E0,1.377136230E-2,9.675280151E0
5.106351042E0,2.674937439E-1,4.837939453E-1,9.755962372E0
5.116400042E0,3.000660095E0,8.605604553E-1,9.868528290E0
5.126450042E0,1.331630859E0,-5.704637146E-1,9.736353149E0
5.136500042E0,9.437873840E-1,5.444178772E-1,9.796977081E0
5.146549042E0,1.836381226E0,1.369651794E-1,9.751471710E0
5.156599042E0,2.536475372E0,-1.887574768E-1,9.873018951E0
5.166649042E0,2.385140076E0,-1.297801208E-1,9.886191559E0
5.176698042E0,2.747237091E0,-1.002914429E-2,9.669292603E0
5.186748042E0,4.669389954E0,-1.675016785E-1,9.859247589E0
5.196798042E0,4.096680908E0,-4.400848389E-1,9.842931519E0
5.206847042E0,3.365900574E0,6.481521606E-2,9.653425598E0
5.216897042E0,3.379821625E0,-1.631607056E-2,9.757010193E0
5.226947042E0,2.362986145E0,-5.239105225E-3,9.943222961E0
5.236996042E0,3.723057861E0,2.168989563E-1,9.802964630E0
5.247046042E0,2.817740479E0,-9.714797974E-2,9.803264008E0
5.257096042E0,2.896626434E0,7.002438354E-1,9.840835876E0
5.267146042E0,3.705244904E0,3.227288818E-1,9.783355408E0
5.277195042E0,4.516408081E0,-7.110214233E-2,9.804461517E0
5.287245042E0,5.271737366E0,-5.337899780E-1,9.876312103E0
5.297295042E0,5.310656433E0,-5.858816528E-1,9.758058014E0
5.307344042E0,6.214327240E0,-1.024768982E0,9.778565369E0
5.317394042E0,6.138285370E0,-1.517544250E0,9.061706085E0
5.327444042E0,6.953939209E0,-1.554367676E0,1.049317932E1
5.337493042E0,7.660170593E0,-1.685644684E0,9.790091400E0
5.347543042E0,7.710615692E0,-1.693278809E0,9.730814667E0
5.357593042E0,4.235741730E0,-6.947053528E-1,9.792336731E0
5.367642042E0,3.166664886E0,6.885681152E-2,9.989327087E0
5.377692042E0,4.965025177E0,-9.422904968E-1,9.756710815E0
5.387742042E0,4.187242584E0,-1.264869690E0,9.845625916E0
5.397791042E0,3.411405945E0,-9.783654785E-1,1.075318863E1
5.407841042E0,5.641767883E0,-1.531016235E0,8.488248596E0
5.417891042E0,4.847669220E0,-1.521735535E0,9.878108368E0
5.427940042E0,4.749323730E0,-9.563612366E-1,9.428892517E0
5.437990042E0,4.604425049E0,-7.176077271E-1,9.892478485E0
5.448040042E0,5.024152222E0,-3.387455750E-1,1.004695724E1
5.458090042E0,5.736071777E0,-5.078938293E-1,9.798923035E0
5.468139042E0,5.716462555E0,-3.969744873E-1,9.765093384E0
5.478189042E0,5.647605743E0,-4.644841003E-1,9.882449341E0
5.488239042E0,5.810167694E0,-8.494834900E-1,9.806706848E0
5.498288042E0,6.154451752E0,-9.614506531E-1,9.827064514E0
5.508338042E0,4.114643555E0,-1.106798401E0,9.779014435E0
5.518388042E0,4.082909546E0,6.182144165E-2,9.698930969E0
5.528437042E0,2.899320831E0,3.068618774E-1,9.883796539E0
5.538487042E0,3.432062988E0,-9.131011963E-2,9.829908600E0
5.548537042E0,3.173251190E0,-4.968168640E-1,9.734107819E0
5.558586042E0,2.912643127E0,-2.653981018E-1,9.758357391E0
5.568636042E0,2.896177368E0,-8.255332947E-1,9.885443115E0
5.578686042E0,3.282973022E0,-1.077908478E0,9.723330231E0
5.588735042E0,2.142494659E0,-8.982820129E-1,9.617649994E0
5.598785042E0,2.470462646E0,-1.176253967E0,9.765392761E0
5.608835042E0,2.288291473E0,-1.942959595E-1,9.995614014E0
5.618884042E0,2.209405518E0,-2.981799316E-1,9.728419647E0
5.628934042E0,2.757116547E0,-4.927752686E-1,9.793384552E0
5.638984042E0,2.465522919E0,-5.499563599E-1,9.883796539E0
5.649033042E0,2.382745056E0,-5.267546082E-1,9.904303894E0
5.659083042E0,2.410736847E0,-4.535568237E-1,9.637857971E0
5.669133042E0,2.426454163E0,-8.207432556E-1,9.715546417E0
5.679183042E0,2.659968567E0,-3.188369751E-2,9.674980774E0
5.689232042E0,2.207010498E0,2.989283752E-1,9.278455353E0
5.699282042E0,1.203796692E0,6.242019653E-1,9.912836151E0
5.709332042E0,1.074465637E0,1.006956024E0,9.916877747E0
5.719381042E0,4.321513367E-1,9.017248535E-1,9.984387360E0
5.729431250E0,1.281335449E-1,9.879455566E-1,9.945617981E0
5.739481250E0,3.059637451E-1,1.230740662E0,9.869725800E0
5.749530250E0,-1.014590149E0,6.481521606E-1,9.626481628E0
5.759580250E0,-2.071093140E0,8.223898315E-1,9.708511047E0
5.769630250E0,-6.598278809E-1,1.707050171E0,9.880353699E0
5.779679250E0,-1.973945160E0,9.999206543E-1,9.854906616E0
5.789729250E0,-1.106349335E0,8.240364075E-1,9.867929535E0
5.799779250E0,-1.895807648E0,2.101629639E-1,9.860894165E0
5.809828250E0,-1.148262177E0,2.673440552E-1,9.787097626E0
5.819878250E0,-8.529263306E-1,1.219963074E-1,9.658964081E0
5.829928250E0,-1.158141632E0,-1.398092651E-1,9.408534851E0
5.839977250E0,-1.245260468E0,-2.784210205E-2,9.643546143E0
5.850027250E0,-1.513203278E0,1.321751404E-1,9.717043304E0
5.860077250E0,-2.158661041E0,1.697470093E-1,9.718091125E0
5.870126250E0,-3.332969055E0,-3.092568970E-1,9.603130188E0
5.880176250E0,-1.144370270E0,-2.733316040E-1,9.695188751E0
5.890226250E0,-2.070494385E0,-1.010249176E0,9.763596497E0
5.900275250E0,-2.950364685E0,-6.384223938E-1,9.558972015E0
5.910325250E0,-2.690505066E0,1.562750244E-1,9.656569061E0
5.920375250E0,-3.010090485E0,3.658392334E-1,9.865534515E0
5.930424250E0,-2.589914246E0,7.990383911E-1,9.718390503E0
5.940474250E0,-2.680625610E0,2.032772827E-1,9.701625366E0
5.950524250E0,-3.430865479E0,-5.915698242E-1,9.740843811E0
5.960574250E0,-3.243155823E0,-4.466711426E-1,9.750872955E0
5.970623250E0,-2.755919037E0,-1.627116394E-1,9.685458984E0
5.980673250E0,-2.939736786E0,-6.544390869E-1,9.765841827E0
5.990723250E0,-3.234473877E0,-8.023315430E-1,9.678124237E0
6.000772250E0,-3.763024750E0,-1.008003845E0,9.720336456E0
6.010822250E0,-3.632795563E0,-9.446855164E-1,9.745334473E0
6.020872250E0,-2.744542694E0,-8.324189758E-1,9.646240540E0
6.030921250E0,-2.972967682E0,-1.160237274E0,9.738748169E0
6.040971250E0,-2.420316925E0,-7.367678833E-1,9.747430115E0
6.051021250E0,-3.333418121E0,-1.259780273E0,9.700577545E0
6.061070250E0,-3.628604279E0,-9.157955933E-1,9.671238556E0
6.071120250E0,-3.329226837E0,-5.897735596E-1,9.755513306E0
6.081170250E0,-4.100423126E0,-1.004261627E0,9.708061981E0
6.091219250E0,-3.458857269E0,-6.706054688E-1,9.712253265E0
6.101269250E0,-3.834875336E0,-9.777667236E-1,9.753417664E0
6.111319250E0,-4.118834839E0,-1.064586182E0,9.735005951E0
6.121368250E0,-3.976929932E0,-7.336244202E-1,9.721833344E0
6.131418250E0,-3.794160004E0,-3.537144470E-1,9.750274200E0
6.141468250E0,-3.737577667E0,-2.357597351E-1,9.704918518E0
6.151517250E0,-3.709885254E0,-6.210585022E-1,9.724976807E0
6.161567250E0,-3.062631226E0,-7.641609192E-1,9.734107819E0
6.171617250E0,-2.915636902E0,-9.792636108E-1,9.729467468E0
6.181667250E0,-2.427651672E0,-8.604107666E-1,9.801018677E0
6.191716250E0,-1.680854645E0,-4.013154602E-1,9.786049805E0
6.201766250E0,-2.663112030E0,-1.154549103E0,9.698332214E0
6.211816250E0,-2.605032806E0,-1.318607941E0,9.755363617E0
6.221865250E0,-2.863694916E0,-8.849597168E-1,9.743089142E0
6.231915250E0,-3.728746033E0,-7.000941467E-1,9.739945679E0
6.241965250E0,-4.032464447E0,-4.456233215E-1,9.761949921E0
6.252014250E0,-5.020709381E0,5.942642212E-2,9.704170074E0
6.262064250E0,-4.788991241E0,1.090332642E0,9.691596222E0
6.272114250E0,-8.876541138E-1,3.239263916E-1,9.843829651E0
6.282163250E0,-2.835104370E0,-1.458117828E0,9.862989807E0
6.292213250E0,-5.858816528E0,-2.491269379E0,9.657766571E0
6.302263250E0,-2.896327057E0,-5.837860107E-1,9.728269958E0
6.312312250E0,-5.124892731E0,-9.812095642E-1,9.768685913E0
6.322362250E0,-6.547085266E0,-9.723779297E-1,9.658365326E0
6.332412250E0,-6.230792999E0,-2.862048340E-1,9.680818634E0
6.342461250E0,-7.676187286E0,-1.801204376E0,9.487570496E0
6.352511250E0,-6.730903015E0,3.830534363E-1,9.457333374E0
6.362561250E0,-5.579048309E0,4.987628174E-1,9.757459259E0
6.372610250E0,-7.024292908E0,-1.260079651E0,9.653724976E0
6.382660250E0,-4.893174591E0,-3.793112183E-1,9.679172058E0
6.392710250E0,-5.069807281E0,-6.575825500E-1,9.769134979E0
6.402759250E0,-4.897515564E0,-5.388793945E-1,9.807604980E0
6.412809250E0,-4.889881439E0,-5.599855042E-1,9.781708832E0
6.422859250E0,-5.215454407E0,-3.924838257E-1,9.626032562E0
6.432909250E0,-4.948409729E0,-5.792953491E-2,9.693242798E0
6.442958250E0,-4.799918518E0,-1.733395386E-1,9.727072449E0
6.453008250E0,-4.882995758E0,-3.635939026E-1,9.639055481E0
6.463058250E0,-3.776945801E0,-7.244934082E-2,9.724677429E0
6.473107250E0,-3.696263580E0,-2.597099304E-1,9.655371552E0
6.483157250E0,-3.524869995E0,-7.574249268E-1,9.582922211E0
6.493207250E0,-3.565585327E0,-6.204597473E-1,9.768685913E0
6.503256250E0,-2.280357971E0,3.616479492E-1,9.776469727E0
6.513306250E0,-2.478396149E0,-2.164498901E-1,9.715247040E0
6.523356250E0,-2.323917389E0,-6.174659729E-1,9.735455017E0
6.533405250E0,-2.001038818E0,-6.391708374E-1,9.706864471E0
6.543455250E0,-1.481319580E0,-7.882608032E-1,9.737101593E0
6.553505250E0,-2.713257751E0,-1.133143616E0,9.790241089E0
6.563554250E0,-4.077670441E0,-5.349874878E-1,9.722132721E0
6.573604250E0,-3.063828735E0,-1.146615601E-1,9.555080109E0
6.583654250E0,-2.787353668E0,-4.800517273E-1,9.793085175E0
6.593703250E0,-2.018103333E0,-3.957769775E-1,9.748328247E0
6.603753250E0,-2.526745605E-1,-8.861572266E-2,9.681417389E0
6.613803250E0,-5.086422729E-1,-7.714956665E-1,9.772577820E0
6.623852250E0,8.948391724E-1,-5.408253479E-1,9.713151398E0
6.633902250E0,1.297801208E-1,-6.843768311E-1,9.824819183E0
6.643952250E0,-4.558021545E-1,-3.864962769E-1,9.684111786E0
6.654001250E0,2.754272461E-2,5.087919617E-1,9.823022919E0
6.664051250E0,1.404080200E-1,3.129991150E-1,9.692344666E0
6.674101250E0,1.261277161E0,3.794609070E-1,9.795480194E0
6.684150250E0,1.743723907E0,-2.606080627E-1,9.804162140E0
6.694200250E0,1.528621216E0,-5.414241028E-1,9.765692139E0
6.704250250E0,1.946252747E0,-5.629792786E-1,9.748328247E0
6.714299250E0,7.842192078E-1,-4.872367859E-1,9.821975098E0
6.724349250E0,1.293160858E0,8.249345398E-1,9.582772522E0
6.734399250E0,1.093625793E0,3.091072083E-1,9.872270508E0
6.744448250E0,9.422904968E-1,6.167175293E-1,9.805359650E0
6.754498250E0,1.954335938E0,5.300477600E-1,9.754764862E0
6.764548250E0,1.740131378E0,1.901046753E-1,9.738748169E0
6.774597250E0,1.733545074E0,1.484912109E-1,9.883197784E0
6.784647250E0,1.477727051E0,-2.101629639E-1,9.797426147E0
6.794697250E0,5.957611084E-1,1.700463867E-1,9.656718750E0
6.804747250E0,1.774110718E0,4.108955383E-1,9.822873230E0
6.814796250E0,1.570683746E0,-3.065625000E-1,9.811047821E0
6.824846250E0,9.491761780E-1,-4.234693909E-1,9.711804199E0
6.834896250E0,2.606230316E0,1.496887207E-3,9.803862762E0
6.844945250E0,2.829865265E0,-1.503772888E0,9.761949921E0
6.854995250E0,1.597478027E0,-1.336271210E0,9.926607513E0
6.865045250E0,5.195396118E0,-2.972817993E-1,9.806407471E0
6.875094250E0,3.737577667E0,-2.219284973E0,9.800719299E0
6.885144250E0,4.537813568E0,-8.812174988E-1,9.876910858E0
6.895194250E0,3.371588745E0,-1.101858673E0,9.699380035E0
6.905243250E0,3.979923706E0,-6.691085815E-1,9.913285217E0
6.915293250E0,3.467688904E0,-1.356329498E0,9.828411713E0
6.925343250E0,3.494183807E0,-9.240284729E-1,9.760902100E0
6.935392250E0,2.937192078E0,-1.059047699E0,9.890831909E0
6.945442250E0,3.457360382E0,-5.358856201E-1,9.846823425E0
6.955492250E0,1.304836578E0,2.151026917E-1,9.805060272E0
6.965541250E0,3.368594971E0,1.794767761E-1,9.837093658E0
6.975591250E0,1.277742920E0,-1.972897339E-1,9.790690155E0
6.985641250E0,1.350641327E0,3.650907898E-1,9.748328247E0
6.995690250E0,1.611099701E0,-6.541397095E-2,9.778415680E0
7.005740250E0,2.070045319E0,-2.278262329E-1,9.789043579E0
7.015790250E0,2.225571899E0,-2.769241333E-2,9.778415680E0
7.025839250E0,2.973566437E0,8.098159790E-2,9.793234863E0
7.035889250E0,2.769540710E0,-1.197509766E-2,9.806257782E0
7.045939250E0,2.399809570E0,1.347198486E-3,9.787397003E0
7.055988250E0,2.946921844E0,3.891906738E-2,9.755213928E0
7.066038250E0,3.729494476E0,-5.278024292E-1,9.877659302E0
7.076088250E0,4.236490173E0,-3.772155762E-1,9.831854553E0
7.086138250E0,4.489913177E0,-3.845503235E-1,9.809850311E0
7.096187250E0,5.817053375E0,-4.243675232E-1,9.856553192E0
7.106237250E0,6.116730194E0,-8.526269531E-1,9.884095917E0
7.116287250E0,6.942562866E0,-4.950205994E-1,9.866282959E0
7.126336250E0,2.977907410E0,4.340972900E-1,9.954898682E0
7.136386250E0,4.855153656E0,-1.107696533E-1,9.727072449E0
7.146436250E0,5.609285431E0,-8.382568359E-2,9.845176849E0
7.156485250E0,4.825664978E0,-4.058061218E-1,9.809850311E0
7.166535250E0,5.878575439E0,-1.251697083E0,9.798024902E0
7.176585250E0,6.581513672E0,-1.130449219E0,9.822274475E0
7.186634250E0,7.970325623E0,-1.362167358E0,9.854906616E0
7.196684250E0,6.901548157E0,-1.845961304E0,9.746981049E0
7.206734250E0,7.773934021E0,-1.585353241E0,9.819879456E0
7.216783250E0,6.958429871E0,-1.740131378E0,9.899663544E0
7.226833250E0,7.688761139E0,-1.710493011E0,9.897867279E0
7.236883250E0,7.481142883E0,-2.848127289E0,9.910740509E0
7.246932250E0,8.156987457E0,-2.918930054E0,9.914333038E0
7.256982250E0,7.836354218E0,-2.917732544E0,9.904603271E0
7.267032250E0,8.478818207E0,-2.808160400E0,9.934241638E0
7.277081250E0,7.515122223E0,-2.618804169E0,9.876012726E0
7.287131250E0,5.824088745E0,-1.464853821E0,9.914033661E0
7.297181250E0,6.621480560E0,-7.291337585E-1,9.899813232E0
7.307230250E0,3.871249695E0,-1.563049622E0,9.733958130E0
7.317280250E0,4.372706909E0,-2.877017212E-1,9.815837860E0
7.327330250E0,4.305945740E0,-9.400451660E-1,9.806407471E0
7.337380250E0,2.300865326E0,-8.024812317E-1,9.749525757E0
7.347429250E0,2.560425568E0,-7.604187012E-2,9.732461243E0
7.357479250E0,1.606010284E0,-8.861572266E-2,9.705816650E0
7.367529250E0,1.913321228E0,3.489244080E-1,9.804162140E0
7.377578250E0,1.076860657E0,-4.174818420E-1,9.828112335E0
7.387628250E0,1.549577637E0,-3.882925415E-1,9.797725525E0
7.397678250E0,1.088237000E0,-5.209167480E-2,9.732760620E0
7.407727250E0,2.565664673E-1,-1.824705505E-1,9.633516998E0
7.417777250E0,1.743574219E0,2.275268555E-1,9.541308746E0
7.427827250E0,-7.774832153E-1,-7.219487000E-1,9.591155090E0
7.437876250E0,2.915936279E-1,5.156776428E-1,1.018691620E1
7.447926250E0,-3.921844482E-2,6.033952332E-1,9.742789764E0
7.457976250E0,-1.317859497E0,5.631289673E-1,9.549990692E0
7.468025250E0,-2.019151154E0,5.694158936E-1,9.794881439E0
7.478075250E0,-1.815574493E0,7.813751221E-1,9.832902374E0
7.488125250E0,-2.376458130E0,4.264631653E-1,9.602082367E0
7.498174250E0,-2.896626434E0,2.197430420E-1,9.753417664E0
7.508224250E0,-2.375260620E0,3.706292725E-1,9.626930695E0
7.518274250E0,-2.636766815E0,-1.137634277E-1,9.697733459E0
7.528323250E0,-2.953358459E0,-4.453239441E-1,9.657616882E0
7.538373250E0,-2.364483032E0,1.347198486E-1,9.892328796E0
7.548423250E0,-3.698658600E0,-3.852987671E-1,9.821675720E0
7.558472250E0,-3.636986847E0,3.366499329E-1,9.763446808E0
7.568522250E0,-4.122277679E0,9.909393311E-2,9.540859680E0
7.578572250E0,-3.600013733E0,-5.583389282E-2,9.608818359E0
7.588621250E0,-3.547472992E0,-6.864724731E-1,9.471703491E0
7.598671250E0,-3.521277466E0,-1.026714935E0,9.822424164E0
7.608721250E0,-3.500620422E0,-1.016087036E0,9.762398987E0
7.618770250E0,-3.921994171E0,-9.665400696E-1,9.589508514E0
7.628820250E0,-4.025878143E0,-2.772235107E-1,9.675729218E0
7.638870250E0,-4.580474854E0,-2.010319519E-1,9.742340698E0
7.648919250E0,-4.569248199E0,-2.309696960E-1,9.574090576E0
7.658969250E0,-4.297413483E0,-3.239263916E-1,9.749376068E0
7.669019250E0,-3.934268646E0,-6.165678406E-1,9.598489838E0
7.679069250E0,-4.759652252E0,-1.262774048E0,9.701026611E0
7.689118250E0,-4.585863647E0,-7.713459778E-1,9.532327423E0
7.699168250E0,-5.591771851E0,-5.351371765E-1,9.854607239E0
7.709218250E0,-5.328619080E0,-3.126997375E-1,9.694589996E0
7.719267250E0,-6.010002136E0,-2.924917603E-1,9.831555176E0
7.729317500E0,-6.068380737E0,-2.453398132E-1,9.712402954E0
7.739367500E0,-5.711971893E0,-5.448669434E-2,9.661808167E0
7.749416500E0,-6.347250824E0,-5.774990845E-1,9.508526917E0
7.759466500E0,-6.291267242E0,-4.331991577E-1,1.000309845E1
7.769516500E0,-6.024521942E0,1.213975525E-1,9.685009918E0
7.779565500E0,-6.504573669E0,-4.920268250E-1,9.744735718E0
7.789615500E0,-6.265670471E0,-7.899073792E-1,9.785900116E0
7.799665500E0,-6.243516541E0,-2.142045593E-1,9.623936920E0
7.809714500E0,-5.035977631E0,-3.864962769E-1,9.664053497E0
7.819764500E0,-4.652175751E0,-9.532177734E-1,9.671388245E0
7.829814500E0,-3.464395752E0,-1.080004120E0,9.719438324E0
7.839863500E0,-2.105072479E0,-1.113983459E0,9.747280426E0
7.849913500E0,-1.428479462E0,-1.021026764E0,9.676926727E0
7.859963500E0,-2.384691010E0,-9.909393311E-1,9.770033112E0
7.870012500E0,-3.001258850E0,-1.133143616E0,9.778565369E0
7.880062500E0,-3.052751770E0,-7.044351196E-1,9.723030853E0
7.890112500E0,-3.657194824E0,-5.279521179E-1,9.713750153E0
7.900161500E0,-4.146527252E0,-3.852987671E-1,9.732760620E0
7.910211500E0,-4.527485046E0,-2.198927307E-1,9.648036804E0
7.920261500E0,-4.832550659E0,-1.953437805E-1,9.667646027E0
7.930310500E0,-5.389392700E0,-1.178050232E-1,9.680668945E0
7.940360500E0,-5.605692902E0,4.340972900E-2,9.705068207E0
7.950410500E0,-5.905669098E0,7.379653931E-2,9.691895599E0
7.960459500E0,-6.874604187E0,-4.475692749E-2,9.634714508E0
7.970509500E0,-6.214925995E0,4.339476013E-1,9.546697540E0
7.980559500E0,-6.343508606E0,1.212478638E-2,9.643695831E0
7.990608500E0,-6.007008362E0,1.968406677E-1,9.726024628E0
8.000658500E0,-5.370382233E0,5.439688110E-1,9.803413696E0
8.010708500E0,-5.487289124E0,3.459306335E-1,9.602830811E0
8.020758500E0,-5.422024841E0,2.782713318E-1,9.855655060E0
8.030807500E0,-5.467679901E0,5.592370605E-1,9.606123962E0
8.040857500E0,-5.276527405E0,7.445516968E-1,9.678273926E0
8.050907500E0,-5.654790802E0,3.817062378E-1,9.527687073E0
8.060956500E0,-4.689747620E0,1.013392639E-1,1.035187317E1
8.071006500E0,-3.346141663E0,-5.264552307E-1,1.013078293E1
8.081056500E0,-2.496508484E0,-3.875440979E-1,8.718769226E0
8.091105500E0,-2.854863281E0,-8.208929443E-1,9.542655945E0
8.101155500E0,-8.578660583E-1,-8.195457458E-1,9.617799683E0
8.111205500E0,6.840774536E-2,-1.087039490E0,9.759704590E0
8.121254500E0,-7.580236816E-1,-1.351689148E0,9.772877197E0
8.131304500E0,-1.532064056E0,-7.908055115E-1,9.716893616E0
8.141354500E0,-6.794371033E-1,-4.558021545E-1,9.782157898E0
8.151403500E0,-1.337169342E0,-9.268725586E-1,9.693991241E0
8.161453500E0,-8.777746582E-1,-9.460327148E-1,9.713600464E0
8.171503500E0,-6.969506836E-1,-7.072792053E-1,9.832303619E0
8.181552500E0,4.046086121E-1,-6.469546509E-1,9.733509064E0
8.191602500E0,-3.068618774E-2,-8.768765259E-1,9.650880890E0
8.201652500E0,1.516646118E0,-3.236270142E-1,9.852361908E0
8.211701500E0,2.266287231E-1,-4.613406372E-1,9.742041321E0
8.221751500E0,-2.559677124E-1,3.110531616E-1,9.788145447E0
8.231801500E0,-7.274871826E-2,1.805245972E-1,9.692793732E0
8.241850500E0,-4.125421143E-1,-1.184037781E-1,9.859696655E0
8.251900500E0,6.795867920E-2,4.393363953E-1,9.731712799E0
8.261950500E0,7.768844604E-2,3.112028503E-1,9.737550659E0
8.271999500E0,4.911286926E-1,1.737886047E-1,9.808802490E0
8.282049500E0,6.735992432E-3,-1.148112488E-1,9.762848053E0
8.292099500E0,3.052153015E-1,5.224136353E-2,9.727222137E0
8.302148500E0,2.201921082E-1,7.828720093E-2,9.749076691E0
8.312198500E0,1.676513672E-1,-4.131408691E-2,9.800569611E0
8.322248500E0,1.511856079E-2,3.646417236E-1,9.736353149E0
8.332297500E0,-3.945794678E-1,2.990780640E-1,9.713450775E0
8.342347500E0,2.344125366E-1,4.161346436E-2,9.799072723E0
8.352397500E0,1.589694214E-1,-4.840933228E-1,9.798923035E0
8.362446500E0,1.100062408E0,-3.616479492E-1,9.750423889E0
8.372496500E0,7.104226685E-1,-6.080355835E-1,9.776170349E0
8.382546500E0,1.516047363E0,-1.706451416E-1,9.824968872E0
8.392596500E0,8.024812317E-1,-3.456312561E-1,9.771979065E0
8.402645500E0,5.953120422E-1,-1.166075134E-1,9.748477936E0
8.412695500E0,1.249152374E0,-2.469863892E-2,9.786049805E0
8.422745500E0,1.008901978E0,-4.486170959E-1,9.817185059E0
8.432794500E0,1.302890625E0,-5.204676819E-1,9.706864471E0
8.442844500E0,1.069376221E0,-8.764274597E-1,9.752070465E0
8.452894500E0,2.735860748E0,-5.996530151E-1,9.832602997E0
8.462943500E0,1.242715759E0,-9.578581238E-1,9.812993774E0
8.472993500E0,1.703906708E0,-4.420307922E-1,9.863738251E0
8.483043500E0,3.435655518E0,-6.388714600E-1,9.773625641E0
8.493092500E0,2.628384247E0,-1.054856415E0,9.837542725E0
8.503142500E0,3.096311188E0,-5.050497437E-1,9.814041595E0
8.513192500E0,1.829345856E0,-4.090992737E-1,9.860145721E0
8.523241500E0,2.595303040E0,3.592529297E-2,9.704469452E0
8.533291500E0,2.055675201E0,-6.722520447E-1,9.849517822E0
8.543341500E0,1.941313019E0,-2.077679443E-1,9.768835602E0
8.553390500E0,1.364712067E0,-2.628533936E-1,9.690249023E0
8.563440500E0,5.661227417E-1,1.854643250E-1,9.863887939E0
8.573490500E0,2.463127899E0,4.541555786E-1,9.840386810E0
8.583539500E0,1.251846771E0,-1.040336609E-1,9.774374084E0
8.593589500E0,1.064586182E0,3.995191956E-1,9.772428131E0
8.603639500E0,1.495839386E0,2.857557678E-1,9.778864746E0
8.613688500E0,2.166893921E0,-2.472857666E-1,9.804910583E0
8.623738500E0,2.544857941E0,-2.959346008E-1,9.787397003E0
8.633788500E0,2.959346008E0,-6.126759338E-1,9.843230896E0
8.643837500E0,2.196232910E0,-3.992198181E-1,9.776020660E0
8.653887500E0,2.487227783E0,-1.728904724E-1,9.824669495E0
8.663937500E0,2.678829346E0,-6.497987366E-1,9.751771088E0
8.673986500E0,3.040477295E0,-5.185217285E-1,9.861792297E0
8.684036500E0,3.589385834E0,-6.692582703E-1,9.855804749E0
8.694086500E0,3.583547974E0,-6.218069458E-1,9.821376343E0
8.704135500E0,4.034859467E0,-6.731501770E-1,9.810149689E0
8.714185500E0,4.464466095E0,-1.060993652E0,9.841584320E0
8.724235500E0,4.922363892E0,-1.137933655E0,9.837243347E0
8.734284875E0,5.848338318E0,-1.345402222E0,9.815239105E0
8.744333875E0,6.559359741E0,-1.693129120E0,9.847272491E0
8.754383875E0,6.756350098E0,-1.640438690E0,9.837692413E0
8.764433875E0,4.485123138E0,-8.604107666E-1,1.000878662E1
8.774482875E0,5.436544647E0,-1.659748535E0,9.849368134E0
8.784532875E0,5.174290009E0,-1.932780762E0,9.767189026E0
8.794582875E0,4.728067932E0,-1.364861755E0,9.947414246E0
8.804631875E0,5.788163452E0,-1.509461060E0,9.974058838E0
8.814681875E0,6.406976624E0,-2.172133026E0,9.744735718E0
8.824731875E0,7.596403198E0,-2.014660492E0,9.804910583E0
8.834780875E0,6.836732941E0,-2.395169220E0,9.722731476E0
8.844830875E0,6.720125427E0,-1.434616699E0,9.785151672E0
8.854880875E0,6.417454834E0,-1.240620117E0,9.829309845E0
8.864929875E0,4.815486145E0,-3.382965088E-1,9.797725525E0
8.874979875E0,5.851930847E0,3.832031250E-2,9.865534515E0
8.885029875E0,2.888094177E0,-1.420545959E-1,9.667646027E0
8.895078875E0,3.097059631E0,6.328839111E-1,9.844578094E0
8.905128875E0,3.694018250E0,-5.599855042E-1,9.813742218E0
8.915178875E0,3.206332397E0,-4.863386536E-1,9.844278717E0
8.925227875E0,3.299139404E0,1.288819885E-1,9.770482178E0
8.935277875E0,4.017944641E0,-3.815565491E-1,9.892328796E0
8.945327875E0,3.667523346E0,-4.623884583E-1,9.791737976E0
8.955376875E0,2.976260834E0,9.086105347E-2,9.822124786E0
8.965426875E0,2.905907135E0,-8.053253174E-2,9.798623657E0
8.975476875E0,3.367996216E0,-2.618055725E-1,9.835447083E0
8.985526875E0,2.142644348E0,-3.356021118E-1,9.703571320E0
8.995575875E0,2.928510132E0,1.031355286E-1,9.721234589E0
9.005625875E0,2.477797394E0,1.540296936E-1,9.808054047E0
9.015675875E0,5.240602112E-1,1.338217163E-1,9.829010468E0
9.025724875E0,3.945794678E-1,6.491999817E-1,9.754016418E0
9.035774875E0,-1.005908203E-1,3.122506714E-1,9.789043579E0
9.045824875E0,1.730401611E-1,8.098159790E-1,9.700128479E0
9.055873875E0,-6.111790466E-1,9.943821716E-1,9.760602722E0
9.065923875E0,-4.192781067E-1,5.712121582E-1,9.820478210E0
9.075973875E0,-8.144563293E-1,2.555186462E-1,9.618099060E0
9.086022875E0,-2.035766602E0,7.451504517E-1,9.719288635E0
9.096072875E0,-8.569679260E-1,1.114881592E0,9.787995758E0
9.106122875E0,-2.615361328E0,5.577401733E-1,9.675579529E0
9.116171875E0,-1.282233582E0,8.930429077E-1,9.773026886E0
9.126221875E0,-2.106719055E0,6.292913818E-1,9.779762878E0
9.136271875E0,-2.348765717E0,6.143225098E-1,9.693841553E0
9.146320875E0,-2.293530579E0,2.200424194E-2,9.712852020E0
9.156370875E0,-2.086660767E0,-2.038760376E-1,9.760453033E0
9.166420875E0,-2.127675476E0,-2.529739380E-1,9.728569336E0
9.176469875E0,-1.804347839E0,8.402027893E-1,9.752369843E0
9.186519875E0,-2.728076935E0,5.239105225E-2,9.713001709E0
9.196569875E0,-2.232008514E0,1.992356873E-1,9.752519531E0
9.206618875E0,-2.298919373E0,3.781137085E-1,9.758058014E0
9.216668875E0,-2.714006195E0,1.519340515E-1,9.686506805E0
9.226718875E0,-1.792073364E0,4.351451111E-1,9.816885681E0
9.236767875E0,-2.631228333E0,-3.293151855E-2,9.718390503E0
9.246817875E0,-1.907183990E0,-1.643582153E-1,9.677675171E0
9.256867875E0,-1.138981476E0,3.616479492E-1,9.847871246E0
9.266916875E0,-1.254241791E0,-1.874102783E-1,9.755213928E0
9.276966875E0,4.733157349E-1,3.112028503E-1,9.748178558E0
9.287016875E0,-1.174457703E0,-9.139993286E-1,9.744735718E0
9.297066875E0,1.614392853E0,4.653822327E-1,9.787397003E0
9.307115875E0,-9.704319763E-1,-9.877958679E-1,9.732461243E0
9.317165875E0,1.772613831E0,1.221459961E-1,9.801467743E0
9.327215875E0,-2.896476746E-1,-1.323697357E0,9.762997742E0
9.337264875E0,6.804849243E-1,-9.969268799E-2,9.736951904E0
9.347314875E0,1.984872437E-1,-2.891986084E-1,9.734107819E0
9.357364875E0,8.107141113E-1,2.215393066E-2,9.816137238E0
9.367413875E0,1.468446350E-1,-2.516267395E-1,9.797126770E0
9.377463875E0,1.974394226E-1,-4.959187317E-1,9.714348907E0
9.387513875E0,-2.366578674E-1,-8.851094055E-1,9.776469727E0
9.397562875E0,-3.857478333E-1,-6.858737183E-1,9.763596497E0
9.407612875E0,-6.213578796E-1,-6.635700989E-1,9.765093384E0
9.417662875E0,-1.513352966E-1,-2.528242493E-1,9.721683655E0
9.427711875E0,-4.086502075E-2,-6.963519287E-1,9.710756378E0
9.437761875E0,1.332229614E-2,-1.330133972E0,9.761800232E0
9.447811875E0,-6.782395935E-1,-1.803898773E0,9.756112061E0
9.457860875E0,-8.951385498E-2,-6.384223938E-1,9.859097900E0
9.467910875E0,-1.582359467E0,-1.244811401E0,9.764045563E0
9.477960875E0,-1.388362885E0,-8.839118958E-1,9.730515289E0
9.488009875E0,-1.870510254E0,-9.292675781E-1,9.772428131E0
9.498059875E0,-1.904040527E0,-1.324445801E0,9.701475677E0
9.508109875E0,-2.523901520E0,-1.739233246E0,9.628277893E0
9.518158875E0,-2.940934296E0,-1.639690247E0,9.764045563E0
9.528208875E0,-3.161425781E0,-1.437311096E0,9.768236847E0
9.538258875E0,-4.347259827E0,-1.307680664E0,9.617350616E0
9.548307875E0,-4.937632141E0,-8.508306885E-1,9.722581787E0
9.558357875E0,-5.414989471E0,-3.968247986E-1,9.750274200E0
9.568407875E0,-5.891598358E0,-3.049159241E-1,9.649982758E0
9.578456875E0,-5.955216064E0,-5.059478760E-2,9.752519531E0
9.588506875E0,-7.008725281E0,-5.763015747E-2,9.644593964E0
9.598556875E0,-7.566315765E0,-3.653901672E-1,9.693991241E0
9.608606875E0,-7.165599060E0,2.529739380E-2,9.699978790E0
9.618655875E0,-7.488777008E0,2.625540161E-1,9.672286377E0
9.628705875E0,-7.405849457E0,4.203259277E-1,9.672735443E0
9.638755875E0,-6.238726501E0,4.790039063E-2,9.694739685E0
9.648804875E0,-3.661236420E0,-1.028660889E0,9.741442566E0
9.658854875E0,-2.517913971E0,-6.592291260E-1,9.689201202E0
9.668904875E0,-2.958747253E0,-9.183403015E-1,9.813742218E0
9.678953875E0,-4.451143799E0,-1.408720551E0,9.679770813E0
9.689003875E0,-3.730242920E0,-9.862989807E-1,9.727521515E0
9.699053875E0,-3.876788177E0,-1.121018829E0,9.726324005E0
9.709102875E0,-4.336033173E0,-1.146615601E0,9.662257233E0
9.719152875E0,-4.279750214E0,-1.163979492E0,9.761051788E0
9.729203000E0,-4.763693848E0,-1.161584473E0,9.700577545E0
9.739252000E0,-5.142705688E0,-6.014492798E-1,9.685159607E0
9.749302000E0,-5.359155579E0,-1.480421448E-1,9.686656494E0
9.759352000E0,-6.027964783E0,-9.639953613E-2,9.691895599E0
9.769401000E0,-5.889053650E0,-1.019380188E-1,9.738299103E0
9.779451000E0,-4.919070740E0,-3.278182983E-2,9.712253265E0
9.789501000E0,-4.829407196E0,-2.859054565E-2,9.781858521E0
9.799550000E0,-5.267995148E0,3.742218018E-3,9.680668945E0
9.809600000E0,-5.307213593E0,3.980223083E-1,9.732161865E0
9.819650000E0,-5.438041534E0,4.772076416E-1,9.652976532E0
9.829699000E0,-5.453160095E0,2.996768188E-1,9.566905518E0
9.839749000E0,-4.639302521E0,3.429368591E-1,9.790091400E0
9.849799000E0,-4.636757812E0,-1.465452576E-1,9.700727234E0
9.859848000E0,-3.979923706E0,-4.730163574E-2,9.560618591E0
9.869898000E0,-3.950584717E0,-2.535726929E-1,9.737999725E0
9.879948000E0,-3.779191132E0,-1.272354126E-1,9.701625366E0
9.889997000E0,-2.796035614E0,-1.287322998E-2,9.716294861E0
9.900047000E0,-1.811383209E0,-2.854563904E-1,9.832004242E0
9.910097000E0,-3.437900848E0,-6.141728210E-1,9.690997467E0
9.920146000E0,-3.096311188E0,4.049079895E-1,9.608219604E0
9.930196000E0,-2.631378021E0,2.824626160E-1,9.717192993E0
9.940246000E0,-2.797382812E0,-1.101708984E-1,9.702523499E0
9.950296000E0,-1.974543915E0,2.963836670E-2,9.815538483E0
9.960345000E0,-1.088985443E0,-2.070195007E-1,9.755662994E0
9.970395000E0,-1.662742310E0,-7.036866760E-1,9.641300812E0
9.980445000E0,-7.701484680E-1,4.011657715E-2,9.801916809E0
9.990494000E0,-7.053332520E-1,-3.499722290E-1,9.679022369E0
1.000054400E1,-1.778751068E0,-1.516346741E-1,9.715845795E0
1.001059400E1,-2.378254395E0,1.457968140E-1,9.694440308E0
1.002064300E1,-1.521585846E0,3.432362366E-1,9.728719025E0
1.003069300E1,-1.365460510E0,-5.854325867E-1,9.760153656E0
1.004074300E1,-4.020639038E-1,-5.761518860E-1,9.784552917E0
1.005079200E1,-5.882766724E-2,-1.196611633E0,9.736203461E0
1.006084200E1,1.127754822E0,-1.129251709E0,9.778265991E0
1.007089200E1,1.322649536E0,-1.313518524E0,9.794282684E0
1.008094100E1,-4.444258118E-1,-1.311273193E0,9.774224396E0
1.009099100E1,1.006357269E0,-6.622229004E-1,9.713750153E0
1.010104100E1,-1.496887207E-4,-1.231788483E0,9.771080933E0
1.011109000E1,7.201524353E-1,-8.146060181E-1,9.755064240E0
1.012114000E1,3.552113342E-1,-8.156538391E-1,9.713151398E0
1.013119000E1,1.006207581E0,-5.866300964E-1,9.873468018E0
1.014123900E1,2.625540161E-1,-1.218765564E0,9.752968597E0
1.015128900E1,2.044448547E0,-4.607418823E-1,9.809550934E0
1.016133900E1,5.674699402E-1,-1.068627777E0,9.776918793E0
1.017138800E1,1.268761597E0,-2.477348328E-1,9.733509064E0
1.018143800E1,8.141569519E-1,-6.400689697E-1,9.773625641E0
1.019148800E1,1.035845947E0,1.480421448E-1,9.836045837E0
1.020153700E1,1.424288177E0,8.666976929E-2,9.785451050E0
1.021158700E1,1.645228729E0,-1.398092651E-1,9.757608948E0
1.022163700E1,2.197879486E0,-5.206173706E-1,9.774523773E0
1.023168600E1,2.331551514E0,-5.846841431E-1,9.725874939E0
1.024173600E1,2.669249268E0,-6.908134460E-1,9.897118835E0
1.025178600E1,2.267035675E0,-5.917195129E-1,9.818681946E0
1.026183600E1,2.830164642E0,-5.704637146E-1,9.816885681E0
1.027188500E1,2.220931549E0,-5.760021973E-1,9.794132996E0
1.028193500E1,1.721120911E0,-4.122427368E-1,9.755213928E0
1.029198500E1,2.611469421E0,-1.272354126E-1,9.839338989E0
1.030203400E1,1.785037994E0,-5.915698242E-1,9.817035370E0
1.031208400E1,1.267115021E0,-1.803749084E-1,9.802216187E0
1.032213400E1,2.055525513E0,-2.275268555E-1,9.790989532E0
1.033218300E1,1.684896240E0,-4.927752686E-1,9.826316071E0
1.034223300E1,3.881129150E0,-1.803749084E-1,9.611812134E0
1.035228300E1,2.533930664E0,-5.257067871E-1,9.819879456E0
1.036233200E1,3.708687744E0,9.924362183E-2,9.862989807E0
1.037238200E1,3.896547089E0,-8.098159790E-2,9.726024628E0
1.038243200E1,4.714296570E0,1.483415222E-1,9.859397278E0
1.039248100E1,4.548591156E0,-1.525328064E-1,9.849517822E0
1.040253100E1,5.413492584E0,4.108955383E-1,9.878557434E0
1.041258100E1,5.389392700E0,7.214996338E-2,9.912237396E0
1.042263000E1,5.870492249E0,1.812730408E-1,9.899962921E0
1.043268000E1,5.593268738E0,8.202941895E-2,9.696985016E0
1.044273000E1,5.864654388E0,2.230361938E-1,9.834998016E0
1.045277900E1,6.599775696E0,7.110214233E-2,9.840386810E0
1.046282900E1,7.054080963E0,-1.579216003E-1,9.817933502E0
1.047287900E1,7.482190704E0,-6.747967529E-1,9.792037354E0
1.048292800E1,6.876849518E0,-1.241069183E0,9.689201202E0
1.049297800E1,3.079845428E0,-4.691244507E-1,9.827513580E0
1.050302800E1,3.582350464E0,1.077758789E-1,9.761351166E0
1.051307700E1,4.246818695E0,-7.828720093E-1,9.910890198E0
1.052312700E1,3.745361481E0,-5.556445312E-1,9.890981598E0
1.053317700E1,4.681215363E0,-7.686515808E-1,9.815388794E0
1.054322600E1,4.777165833E0,-7.204518127E-1,9.773775330E0
1.055327600E1,5.144801331E0,-6.011499023E-1,9.922715607E0
1.056332600E1,5.129233704E0,-7.893086243E-1,9.848020935E0
1.057337600E1,5.217100983E0,-8.385562134E-1,9.786947937E0
1.058342500E1,4.635260925E0,-6.517446899E-1,9.837692413E0
1.059347500E1,4.355343018E0,-4.498146057E-1,9.814790039E0
1.060352500E1,3.993844757E0,-3.848497009E-1,9.839937744E0
1.061357400E1,3.655099182E0,-4.076023865E-1,9.738299103E0
1.062362400E1,3.275488586E0,-1.392105103E-1,9.851613464E0
1.063367400E1,2.719245300E0,-1.493893433E-1,9.795480194E0
1.064372300E1,2.059567108E0,1.133143616E-1,9.771080933E0
1.065377300E1,2.026635590E0,5.287005615E-1,9.886490936E0
1.066382300E1,2.451302490E0,5.444178772E-1,9.836943970E0
1.067387200E1,3.049458618E0,4.340972900E-3,9.761949921E0
1.068392200E1,3.129691772E0,-2.424957275E-1,9.862540741E0
1.069397200E1,3.189567261E0,-3.707789612E-1,9.925260315E0
1.070402100E1,2.309696960E0,-6.170169067E-1,9.638456726E0
1.071407100E1,1.956581268E0,4.355941772E-2,9.776320038E0
1.072412100E1,1.315165100E0,5.704637146E-1,9.715097351E0
1.073416967E1,1.365460510E0,6.984475708E-1,9.726922760E0
1.074421967E1,1.815724182E-1,7.051835632E-1,9.844877472E0
1.075426967E1,1.499731293E0,1.011147308E0,9.777068481E0
1.076431867E1,1.056502991E0,3.061134338E-1,9.740245056E0
1.077436867E1,1.740430756E0,5.001100159E-1,9.831255798E0
1.078441867E1,-1.869612122E-1,-3.743714905E-1,9.838440857E0
1.079446767E1,2.343975677E0,8.324189758E-1,9.776769104E0
1.080451767E1,2.060016174E0,4.531077576E-1,9.745933228E0
1.081456767E1,-1.022523651E0,-1.194815369E0,9.708061981E0
1.082461767E1,3.084036713E0,1.206191711E0,9.879305878E0
1.083466667E1,8.864566040E-1,8.322692871E-2,9.715546417E0
1.084471667E1,8.300239563E-1,-2.374063110E-1,9.793683929E0
1.085476567E1,1.629661102E0,1.996847534E-1,9.817334747E0
1.086481567E1,8.780740356E-1,-4.056564331E-1,9.728419647E0
1.087486567E1,1.324445801E0,2.167492676E-1,9.783056030E0
1.088491567E1,6.568341064E-1,-3.321592712E-1,9.806108093E0
1.089496467E1,8.770262146E-1,1.646575928E-2,9.837692413E0
1.090501467E1,9.192384338E-1,4.760101318E-2,9.737999725E0
1.091506467E1,1.090182953E0,-5.313949585E-2,9.750872955E0
1.092511367E1,3.117566986E0,1.032852173E-1,9.809550934E0
1.093516367E1,-4.828958130E-1,-2.021695862E0,9.685309296E0
1.094521367E1,2.304158478E0,5.601351929E-1,9.869576111E0
1.095526267E1,4.126918030E-1,-1.703457642E-1,9.751621399E0
1.096531267E1,1.480421448E-1,-5.629792786E-1,9.827214203E0
1.097536267E1,5.971083069E-1,7.634124756E-2,9.682165833E0
1.098541167E1,-4.215234375E-1,-1.646575928E-2,9.798923035E0
1.099546167E1,-1.333726501E-1,4.029620361E-1,9.745633850E0
1.100551167E1,-8.512797546E-1,2.647993469E-1,9.786798248E0
1.101556067E1,-2.495310974E-1,4.974156189E-1,9.786648560E0
1.102561067E1,-5.822891235E-1,-9.265731812E-2,9.730814667E0
1.103566067E1,-4.614903259E-1,-2.947370911E-1,9.666598206E0
1.104570967E1,-5.343887329E-2,-3.685336304E-1,9.769883423E0
1.105575967E1,-9.208850098E-1,-7.126679993E-1,9.708361359E0
1.106580967E1,-1.209484863E0,-4.843927002E-1,9.756261749E0
1.107585867E1,-1.603016510E0,-5.402265930E-1,9.758956146E0
1.108590867E1,-1.223405914E0,-6.731501770E-1,9.668843536E0
1.109595867E1,-1.677112427E0,-8.692424011E-1,9.763446808E0
1.110600767E1,-1.333427124E0,-4.718188477E-1,9.888137512E0
1.111605767E1,-1.693129120E0,-6.262976074E-1,9.575886841E0
1.112610767E1,-2.513273621E0,-8.578660583E-1,9.747729492E0
1.113615667E1,-2.080972595E0,-8.202941895E-2,9.641300812E0
1.114620667E1,-2.466421051E0,-1.047821045E-1,9.809850311E0
1.115625667E1,-2.789299622E0,-8.217910767E-2,9.797126770E0
1.116630567E1,-3.847149811E0,-6.623725891E-1,9.671837311E0
1.117635567E1,-3.492387543E0,-4.472698975E-1,9.686357117E0
1.118640567E1,-3.894152069E0,-3.671864319E-1,9.723330231E0
1.119645567E1,-4.012555847E0,-3.788621521E-1,9.661209412E0
1.120650467E1,-4.234244843E0,-9.175918579E-2,9.720785522E0
1.121655467E1,-5.019960938E0,-1.793270874E-1,9.698182526E0
1.122660467E1,-5.324427795E0,-4.613406372E-1,9.667196960E0
1.123665367E1,-4.864284668E0,-7.342231750E-1,9.701775055E0
1.124670367E1,-5.440885620E0,-8.830137634E-1,9.654174042E0
1.125675367E1,-5.165757751E0,-6.222560120E-1,9.740694122E0
1.126680267E1,-4.937482452E0,-1.235381012E0,9.715995483E0
1.127685267E1,-5.239254913E0,-8.556207275E-1,9.725126495E0
1.128690267E1,-6.266718292E0,-7.012916565E-1,9.650431824E0
1.129695167E1,-5.554499359E0,-4.390370178E-1,9.710906067E0
1.130700167E1,-5.048850861E0,-4.960684204E-1,9.701475677E0
1.131705167E1,-4.890031128E0,-6.954537964E-1,9.711205444E0
1.132710067E1,-4.821174316E0,-9.571096802E-1,9.709109802E0
1.133715067E1,-4.828958130E0,-1.048719177E0,9.721983032E0
1.134720067E1,-4.702620850E0,-1.250649261E0,9.720635834E0
1.135724967E1,-4.332290955E0,-1.434467010E0,9.723030853E0
1.136729967E1,-3.689527588E0,-1.677112427E0,9.749825134E0
1.137734967E1,-2.462229767E0,-2.013612671E0,9.775122528E0
1.138739867E1,-8.526269531E-1,-1.275198212E0,9.832153931E0
1.139744867E1,-7.083270264E-1,-2.905458069E-1,9.822573853E0
1.140749867E1,-2.498304749E0,-1.526525574E0,9.710307312E0
1.141754767E1,-2.514620819E0,-8.113128662E-1,9.746531982E0
1.142759767E1,-2.521356812E0,-3.484753418E-1,9.753567352E0
1.143764767E1,-2.773881683E0,-6.316864014E-1,9.678722992E0
1.144769667E1,-2.901416473E0,-5.749543762E-1,9.737400970E0
1.145774667E1,-3.554059296E0,-5.149291992E-1,9.737400970E0
1.146779667E1,-3.881877594E0,-8.337661743E-2,9.672885132E0
1.147784667E1,-4.255949707E0,-1.064286804E-1,9.721384277E0
1.148789567E1,-4.295317841E0,-2.902464294E-1,9.736802216E0
1.149794567E1,-4.117637329E0,-3.565585327E-1,9.724228363E0
1.150799567E1,-4.492308197E0,-4.893324280E-1,9.753118286E0
1.151804467E1,-5.124144287E0,-2.736309814E-1,9.701924744E0
1.152809467E1,-5.007836151E0,-7.694000244E-2,9.692045288E0
1.153814467E1,-4.630171509E0,-3.558100891E-1,9.760453033E0
1.154819367E1,-4.635859680E0,-3.228785706E-1,9.437724152E0
1.155824367E1,-4.153562622E0,-1.601669312E-2,1.029948212E1
1.156829367E1,-5.368735657E0,-4.590953064E-1,9.283993835E0
1.157834267E1,-4.792583771E0,1.766326904E-2,9.726922760E0
1.158839267E1,-4.962480469E0,-2.055226135E-1,9.776020660E0
1.159844267E1,-5.130131836E0,-2.155517578E-1,9.588011627E0
1.160849167E1,-4.552632751E0,-1.823208618E-1,9.645192719E0
1.161854167E1,-4.149521027E0,-4.056564331E-1,9.747130737E0
1.162859167E1,-3.597169647E0,-3.643423462E-1,9.656569061E0
1.163864067E1,-3.767665100E0,-5.201683044E-1,9.736802216E0
1.164869067E1,-2.860401764E0,-1.432521057E-1,9.801467743E0
1.165874067E1,-3.438798981E0,-2.679428101E-1,9.720785522E0
1.166878967E1,-2.744093628E0,2.395019531E-2,9.750872955E0
1.167883967E1,-2.430645447E0,-2.847079468E-1,9.689350891E0
1.168888967E1,-1.870659943E0,-4.348457336E-1,9.661359100E0
1.169893867E1,-1.218316498E0,-5.721102905E-1,9.835447083E0
1.170898867E1,-1.188678131E0,-8.330177307E-1,9.705666962E0
1.171903867E1,-9.675878906E-1,-5.307962036E-1,9.762548676E0
1.172908862E1,-1.297352142E0,-6.253994751E-1,9.760752411E0
1.173913862E1,-2.012415161E0,-4.370910645E-1,9.657916260E0
1.174918862E1,-2.012415161E0,-9.295669556E-2,9.650431824E0
1.175923762E1,-1.499132538E0,-4.909790039E-2,9.812694397E0
1.176928762E1,-1.027613068E0,-1.022373962E-1,9.638307037E0
1.177933762E1,-7.628137207E-1,-3.230282593E-1,9.829908600E0
1.178938763E1,-5.554948425E-1,-4.108955383E-1,9.715097351E0
1.179943662E1,-1.895059204E-1,-3.463796997E-1,9.775870972E0
1.180948662E1,-8.527766418E-1,-6.400689697E-1,9.780211945E0
1.181953663E1,-6.715036011E-1,1.149609375E-1,9.771080933E0
1.182958562E1,-1.065634003E0,1.748364258E-1,9.698481903E0
1.183963562E1,-7.330256653E-1,2.695893860E-1,9.747879181E0
1.184968562E1,3.326083374E-1,3.399430847E-1,9.749825134E0
1.185973462E1,2.583627319E-1,-2.041754150E-1,9.781858521E0
1.186978462E1,5.836363220E-1,-4.439767456E-1,9.743687897E0
1.187983462E1,1.721569977E0,-4.855902100E-1,9.789342957E0
1.188988362E1,1.378333740E0,-7.369175720E-1,9.834099884E0
1.189993362E1,1.169967041E0,-1.878593445E-1,9.735155640E0
1.190998362E1,8.363108826E-1,-1.396595764E-1,9.757010193E0
1.192003262E1,8.511300659E-1,-2.631527710E-1,9.806706848E0
1.193008262E1,8.758287048E-1,-2.484832764E-1,9.833800507E0
1.194013262E1,7.101232910E-1,-1.966909790E-1,9.696535950E0
1.195018162E1,4.574487305E-1,-1.321751404E-1,9.836943970E0
1.196023162E1,1.207688599E0,-3.121009827E-1,9.776769104E0
1.197028162E1,1.203946381E0,-4.719685364E-1,9.710756378E0
1.198033062E1,1.824855194E0,-8.012837219E-1,9.843829651E0
1.199038062E1,1.645977173E0,-6.830296326E-1,9.788744202E0
1.200043062E1,2.244133301E0,-6.915618896E-2,9.718689880E0
1.201047962E1,1.501078491E0,6.750961304E-2,9.861792297E0
1.202052962E1,1.040336609E0,3.023712158E-1,9.759554901E0
1.203057962E1,1.239123230E0,3.737727356E-1,9.720635834E0
1.204062862E1,4.920268250E-1,3.498225403E-1,9.913584595E0
1.205067862E1,1.668131104E0,9.900411987E-1,9.701924744E0
1.206072862E1,7.267387390E-1,5.463638306E-1,9.777816925E0
1.207077762E1,1.405427399E0,5.382806396E-1,9.761500854E0
1.208082762E1,1.439706116E0,1.972897339E-1,9.791737976E0
1.209087762E1,2.091151428E0,2.883004761E-1,9.809850311E0
1.210092762E1,1.941762085E0,1.655557251E-1,9.794432373E0
1.211097663E1,2.530038757E0,2.659968567E-1,9.729317780E0
1.212102662E1,2.984643402E0,-1.960922241E-2,9.836644592E0
1.213107662E1,2.570005646E0,-1.649569702E-1,9.898016968E0
1.214112562E1,3.301833801E0,-2.255809021E-1,9.833351440E0
1.215117562E1,3.083887024E0,-1.378633118E-1,9.811347198E0
1.216122562E1,3.304079132E0,2.405497742E-1,9.818681946E0
1.217127462E1,3.745211792E0,1.779798889E-1,9.747130737E0
1.218132462E1,3.656596069E0,2.698887634E-1,9.819879456E0
1.219137462E1,3.807781677E0,3.100053406E-1,9.804910583E0
1.220142362E1,4.183200989E0,3.493734741E-1,9.739047546E0
1.221147362E1,4.460424500E0,1.522334290E-1,9.836494904E0
1.222152362E1,4.962330780E0,3.734733582E-1,9.765392761E0
1.223157262E1,5.362897797E0,5.748046875E-2,9.869276733E0
1.224162262E1,6.222410431E0,-2.764750671E-1,9.859846344E0
1.225167262E1,7.262148285E0,-1.188229065E0,9.882748718E0
1.226172162E1,8.497379608E0,-1.760788422E0,9.926607513E0
1.227177162E1,8.922794952E0,-3.261268158E0,9.947713623E0
1.228182162E1,7.744894409E0,-3.050805817E0,9.925709381E0
1.229187062E1,7.239994354E0,-1.669927368E0,9.758207703E0
1.230192062E1,6.344107361E0,-3.050955505E0,9.804311829E0
1.231197062E1,7.493716736E0,-2.992876282E0,9.974807281E0
1.232201962E1,7.500452728E0,-3.530109100E0,9.893226929E0
1.233206962E1,7.934250641E0,-3.503015442E0,9.939181366E0
1.234211962E1,7.661218414E0,-3.463347931E0,1.003453308E1
1.235216962E1,7.023394775E0,-2.260449371E0,9.706415405E0
1.236221862E1,6.397396545E0,-1.572629700E0,9.799372101E0
1.237226862E1,4.371958466E0,-5.264552307E-1,9.780511322E0
1.238231862E1,4.072581024E0,6.376739502E-2,9.860594788E0
1.239236762E1,4.625531158E0,-5.918692017E-1,9.633067932E0
1.240241762E1,4.156855774E0,-5.315446472E-1,9.688752136E0
1.241246762E1,4.558021545E0,-9.280700684E-3,9.817334747E0
1.242251662E1,5.166206818E0,-4.270619202E-1,9.944869537E0
1.243256662E1,4.420756989E0,1.866618347E-1,9.663903809E0
1.244261662E1,3.487148438E0,5.144801331E-1,9.816885681E0
1.245266562E1,4.375401306E0,4.806504822E-1,9.752220154E0
1.246271562E1,3.530408478E0,7.265890503E-1,9.679770813E0
1.247276562E1,2.954855347E0,1.085093536E0,9.773775330E0
1.248281462E1,2.985541534E0,1.031055908E0,9.778565369E0
1.249286462E1,3.112926636E0,5.596861267E-1,1.003947281E1
1.250291462E1,3.299438782E0,3.878434753E-1,9.719737701E0
1.251296362E1,3.853436737E0,5.418731689E-2,9.711355133E0
1.252301362E1,2.782563629E0,-6.972500610E-1,9.689799957E0
1.253306362E1,4.023183746E0,-6.599775696E-1,9.971214752E0
1.254311262E1,2.897524567E0,-8.973838806E-1,9.853260040E0
1.255316263E1,3.483256531E0,-1.074615326E0,9.699529724E0
1.256321262E1,3.251688080E0,-2.039209442E0,9.758058014E0
1.257326262E1,2.198029175E0,-1.141376495E0,1.002674927E1
1.258331162E1,2.069446564E0,-5.947132874E-1,1.021730301E1
1.259336162E1,1.098565521E0,-3.195854187E-1,9.417965240E0
1.260341162E1,-2.685415649E-1,-2.278262329E-1,7.493567047E0
1.261346062E1,-1.282832336E-1,6.155200195E-1,1.162572418E1
1.262351062E1,-4.860392761E-1,5.596861267E-1,9.715696106E0
1.263356062E1,-1.195863190E0,-2.052232361E-1,9.771679688E0
1.264360962E1,-7.484436035E-1,-1.206491089E-1,9.449100494E0
1.265365962E1,-2.240989838E0,3.956272888E-1,9.953102417E0
1.266370962E1,-3.404669952E0,6.138734436E-1,9.566007385E0
1.267375862E1,-3.213966522E0,8.735833740E-1,9.999805298E0
1.268380862E1,-3.723955994E0,9.418414307E-1,9.671537933E0
1.269385862E1,-3.347788239E0,7.866142273E-1,9.734856262E0
1.270390762E1,-3.572021942E0,4.629872131E-1,9.519005127E0
1.271395762E1,-3.427422638E0,4.279600525E-1,9.840686188E0
1.272400762E1,-4.386478271E0,4.808001709E-1,9.619446259E0
1.273405575E1,-4.304748230E0,8.919950867E-1,9.802814941E0
1.274410575E1,-4.185596008E0,6.767427063E-1,9.865684204E0
1.275415575E1,-3.928281097E0,5.783972168E-1,9.633816376E0
1.276420475E1,-3.768563232E0,3.538641357E-1,9.670490112E0
1.277425475E1,-3.389252014E0,1.612147522E-1,9.716294861E0
1.278430475E1,-3.985013123E0,-9.969268799E-2,9.538314972E0
1.279435375E1,-3.267106018E0,5.607339478E-1,9.880204010E0
1.280440375E1,-3.207829285E0,2.823129272E-1,9.807604980E0
1.281445375E1,-2.808010712E0,-2.507286072E-1,9.710606689E0
1.282450275E1,-2.309247894E0,-4.260140991E-1,9.725276184E0
1.283455275E1,-2.661615143E0,-8.958869934E-1,1.012958542E1
1.284460275E1,-2.068249054E0,-9.994715881E-1,1.016700760E1
1.285465275E1,-2.158361664E0,-1.154100037E0,9.298513641E0
1.286470175E1,-2.388133850E0,-1.715432739E0,9.759105835E0
1.287475175E1,-2.927761688E0,-1.334774323E0,9.501641235E0
1.288480175E1,-3.666325836E0,-1.098116455E0,9.703870697E0
1.289485075E1,-4.058809662E0,-9.996212769E-1,9.698332214E0
1.290490075E1,-4.653223572E0,-5.975573730E-1,9.612560577E0
1.291495075E1,-5.000501404E0,-2.426454163E-1,9.641001434E0
1.292499975E1,-5.594316559E0,-2.257305908E-1,9.718390503E0
1.293504975E1,-6.062542877E0,4.490661621E-3,9.813143463E0
1.294509975E1,-6.126310272E0,7.723937988E-2,9.644593964E0
1.295514875E1,-6.266718292E0,-8.307723999E-2,9.621541901E0
1.296519875E1,-6.381978607E0,-8.681945801E-3,9.775272217E0
1.297524875E1,-6.310128021E0,3.263214111E-2,9.583071899E0
1.298529775E1,-6.880442047E0,-7.438032532E-1,8.677155762E0
1.299534775E1,-5.723647614E0,-7.379653931E-2,1.026759842E1
1.300539775E1,-6.066135406E0,-3.507206726E-1,9.596992950E0
1.301544675E1,-6.118975525E0,-7.328759766E-1,9.600286102E0
1.302549675E1,-4.558171234E0,-8.809181213E-1,1.053703812E1
1.303554675E1,-3.820355530E0,-9.250762939E-1,9.623936920E0
1.304559575E1,-5.341192932E0,-7.093748474E-1,9.694290619E0
1.305564575E1,-5.007237396E0,-7.752378845E-1,9.638905792E0
1.306569575E1,-4.399351501E0,-3.996688843E-1,9.716444550E0
1.307574475E1,-4.202061768E0,-9.848020935E-1,1.051727921E1
1.308579475E1,-6.400240631E0,-9.131011963E-2,8.430319061E0
1.309584475E1,-5.527854767E0,4.418811035E-1,9.903405762E0
1.310589375E1,-6.108796692E0,-2.716850281E-1,9.592053223E0
1.311594375E1,-6.220763855E0,-5.044509888E-2,9.614057465E0
1.312599375E1,-5.885161743E0,1.161584473E-1,1.007000931E1
1.313604275E1,-4.825515289E0,-6.432124329E-1,1.007210495E1
1.314609275E1,-3.719315643E0,-8.496331787E-1,9.819580078E0
1.315614275E1,-3.974834290E0,-5.028044128E-1,9.364376678E0
1.316619275E1,-4.593497772E0,-1.722917175E-1,9.504036255E0
1.317624175E1,-4.712799683E0,-4.505630493E-2,9.604327698E0
1.318629175E1,-4.416416016E0,-3.969744873E-1,9.606423340E0
1.319634175E1,-4.164938965E0,-4.724176025E-1,9.638157349E0
1.320639075E1,-2.604883118E0,-1.103205872E-1,9.751920776E0
1.321644075E1,-2.203268280E0,-4.346960449E-1,9.675878906E0
1.322649075E1,-1.100511475E0,-2.246827698E-1,9.725725250E0
1.323653975E1,-1.042881317E0,-2.941383362E-1,9.761650543E0
1.324658975E1,-2.561174011E0,-4.366419983E-1,9.690099335E0
1.325663975E1,-3.387156372E0,3.077600098E-1,9.700876923E0
1.326668875E1,-3.219355316E0,1.270857239E-1,9.702673187E0
1.327673875E1,-1.967957611E0,-2.139051819E-1,9.753267975E0
1.328678875E1,-1.222507782E0,-3.766168213E-1,9.662406921E0
1.329683775E1,-1.788181458E0,-5.918692017E-1,9.710606689E0
1.330688775E1,-5.128335571E-1,-2.640509033E-1,9.821975098E0
1.331693775E1,2.860551453E-1,-4.924758911E-2,9.781110077E0
1.332698675E1,-9.202862549E-1,-2.095642090E-1,9.764344940E0
1.333703675E1,-2.672542419E0,5.394781494E-1,9.721533966E0
1.334708675E1,-1.509760437E0,1.391805725E0,9.671687622E0
1.335713575E1,-1.812431030E0,5.209167480E-1,9.666897583E0
1.336718575E1,-2.545007629E0,2.820135498E-1,9.870773621E0
1.337723575E1,-2.875520325E-1,5.155279541E-1,9.680219879E0
1.338728475E1,-1.544787598E-1,-8.696914673E-2,9.669741669E0
1.339733475E1,4.197271729E-1,3.209326172E-1,9.806407471E0
1.340738475E1,3.233276367E-1,3.143463135E-2,9.718390503E0
1.341743375E1,-1.356179810E-1,2.728825378E-1,9.760303345E0
1.342748375E1,-1.097218323E-1,3.677851868E-1,9.774673462E0
1.343753375E1,-1.705553284E0,6.574328613E-1,9.769134979E0
1.344758275E1,-1.517095184E0,9.978250122E-1,9.755213928E0
1.345763275E1,7.484436035E-2,1.582209778E-1,9.719438324E0
1.346768275E1,-1.968406677E-1,-4.623884583E-1,9.788444824E0
1.347773275E1,4.716691589E-1,1.077758789E-2,9.775870972E0
1.348778175E1,1.023122406E0,-4.472698975E-1,9.765542450E0
1.349783175E1,1.501677246E0,-5.402265930E-1,9.756261749E0
1.350788175E1,1.499880981E0,-2.948867798E-1,9.805060272E0
1.351793075E1,9.897418213E-1,-2.996768188E-1,9.812544708E0
1.352798075E1,8.279283142E-1,-2.800675964E-1,9.729018402E0
1.353803075E1,5.694158936E-1,-5.176235962E-1,9.778415680E0
1.354807975E1,1.038390656E0,-7.376660156E-1,9.851613464E0
1.355812975E1,1.052760773E0,-1.097368011E0,9.770482178E0
1.356817975E1,1.140628052E0,-8.837622070E-1,9.767189026E0
1.357822875E1,-1.992356873E-1,-6.288423157E-1,9.760303345E0
1.358827875E1,2.644550629E0,-4.116439819E-1,9.843230896E0
1.359832875E1,1.082548828E0,-7.313790894E-1,9.803713074E0
1.360837775E1,4.071533203E-1,4.528083801E-1,9.757908325E0
1.361842775E1,3.592529297E-1,-1.221459961E-1,9.743687897E0
1.362847775E1,9.017248535E-1,-5.798941040E-1,9.824220428E0
1.363852675E1,8.548722839E-1,-6.866221619E-1,9.743388519E0
1.364857675E1,1.413360901E0,-7.198530579E-1,9.754016418E0
1.365862675E1,9.068142700E-1,-8.129594421E-1,9.810000000E0
1.366867575E1,1.767225037E0,-3.617976379E-1,9.781559143E0
1.367872575E1,1.276545410E0,-2.959346008E-1,9.776918793E0
1.368877575E1,1.082249451E0,-1.478924561E-1,9.882000275E0
1.369882475E1,9.943821716E-1,-4.236190796E-2,9.734257507E0
1.370887475E1,6.469546509E-1,-3.146456909E-1,9.811646576E0
1.371892475E1,1.076411591E0,-4.282594299E-1,9.775421906E0
1.372897375E1,4.827461243E-1,-3.526666260E-1,9.729916534E0
1.373902429E1,6.227050781E-1,9.385482788E-2,9.755213928E0
1.374907429E1,6.833290100E-1,-8.128097534E-2,9.770781555E0
1.375912329E1,1.013841705E0,6.017486572E-2,9.743238831E0
1.376917329E1,4.457730103E-1,-1.703457642E-1,9.708960114E0
1.377922329E1,1.794019318E0,8.641529846E-1,9.935139771E0
1.378927229E1,2.972967682E0,-9.903405762E-1,9.790989532E0
1.379932229E1,2.141297150E0,-4.296066284E-2,9.839638367E0
1.380937229E1,3.270848236E0,-3.245251465E-1,9.773475952E0
1.381942229E1,2.207010498E0,-4.020639038E-1,9.864037628E0
1.382947129E1,5.026247864E0,-4.799020386E-1,9.843230896E0
1.383952129E1,2.908900909E0,-7.240443420E-1,9.862989807E0
1.384957129E1,4.125720520E0,-2.293231201E-1,9.801767120E0
1.385962029E1,4.796026611E0,-8.178991699E-1,9.825268250E0
1.386967029E1,4.823868713E0,-1.035845947E0,9.910590820E0
1.387972029E1,5.068759460E0,-8.967851257E-1,9.815987549E0
1.388976929E1,6.650969238E0,-1.775008850E0,9.813742218E0
1.389981929E1,6.959926758E0,-2.381098480E0,1.000010468E1
1.390986929E1,7.772586823E0,-2.728376312E0,9.799072723E0
1.391991829E1,7.989336090E0,-2.902015228E0,9.809850311E0
1.392996829E1,2.163900146E0,-4.863386536E-1,9.960586853E0
1.394001829E1,1.745520172E0,-3.809577942E-1,9.814340973E0
1.395006729E1,2.876568146E0,-9.060658264E-1,9.847721558E0
1.396011729E1,2.247276764E0,-8.554710388E-1,9.873468018E0
1.397016729E1,3.002905426E0,-1.175355835E0,9.748927002E0
1.398021629E1,3.843257904E0,-1.756148071E0,9.844129028E0
1.399026629E1,4.126768341E0,-2.233505402E0,9.782756653E0
1.400031629E1,4.073179779E0,-2.071392517E0,9.751172333E0
1.401036529E1,3.986809387E0,-1.738784180E0,9.850715332E0
1.402041529E1,3.820205841E0,-1.472487946E0,9.801767120E0
1.403046529E1,3.737577667E0,-1.341660004E0,9.821226654E0
1.404051429E1,3.372337189E0,-1.064286804E0,9.836644592E0
1.405056429E1,3.219654694E0,-1.082249451E0,9.814490662E0
1.406061429E1,2.771187286E0,-1.035396881E0,9.841284943E0
1.407066329E1,2.418221283E0,-7.896080017E-1,9.922416229E0
1.408071329E1,2.526595917E0,-7.140151978E-1,9.819430389E0
1.409076329E1,2.371368713E0,-3.305126953E-1,9.854307861E0
1.410081329E1,1.756297760E0,2.053729248E-1,9.896969147E0
1.411086229E1,1.390907593E0,5.028044128E-1,9.636061707E0
1.412091229E1,1.607207794E0,6.813830566E-1,9.849517822E0
1.413096229E1,3.229983215E0,-3.308120728E-2,9.763297119E0
1.414101129E1,1.583407288E0,-4.360432434E-1,9.716145172E0
1.415106129E1,2.231409760E0,4.143383789E-1,9.776170349E0
1.416111129E1,3.224145355E0,-9.900411987E-1,9.836644592E0
1.417116029E1,3.963308258E0,-6.324348450E-1,9.925559692E0
1.418121029E1,1.778002625E0,-7.262896729E-1,9.606423340E0
1.419126029E1,3.275338898E0,2.013313293E-1,9.695637817E0
1.420130929E1,2.508633270E0,-4.189787292E-1,9.801018677E0
1.421135929E1,2.374811554E0,-9.729766846E-2,9.739047546E0
1.422140929E1,1.800156555E0,-4.315525818E-1,1.013317795E1
1.423145829E1,3.586242371E0,-8.637039185E-1,9.606573029E0
1.424150829E1,2.251767426E0,-1.188528442E0,9.759255524E0
1.425155829E1,2.787802734E0,-1.187330933E0,9.636061707E0
1.426160729E1,2.198927307E0,-9.999206543E-1,9.838440857E0
1.427165729E1,2.980601807E0,-7.866142273E-1,9.886490936E0
1.428170729E1,3.184926910E0,-9.440867615E-1,9.678273926E0
1.429175629E1,2.287992096E0,-5.421725464E-1,9.632169800E0
1.430180629E1,1.844314728E0,-6.785389709E-1,9.822274475E0
1.431185629E1,2.098935242E0,-2.451901245E-1,9.873168640E0
1.432190629E1,2.067500610E0,-4.770579529E-1,9.417815552E0
1.433195529E1,2.906655579E0,-8.412506104E-1,8.058192902E0
1.434200529E1,2.602039032E0,-6.587800598E-1,1.128084137E1
1.435205529E1,2.162852325E0,-4.119433594E-1,1.050635193E1
1.436210429E1,1.428928528E0,-3.607498169E-2,9.425599365E0
1.437215429E1,9.219328308E-1,2.005828857E-1,9.865384827E0
1.438220429E1,4.237687683E-1,1.916015625E-2,9.857151947E0
1.439225329E1,-1.996847534E-1,-4.520599365E-2,9.696835327E0
1.440230329E1,8.337661743E-2,3.323089600E-2,9.677824860E0
1.441235329E1,-4.819976807E-1,2.739303589E-1,9.636660461E0
1.442240229E1,-4.797523499E-1,5.968089294E-1,9.970915375E0
1.443245229E1,-1.019380188E0,5.891748047E-1,9.729467468E0
1.444250229E1,-7.421566772E-1,4.986131287E-1,9.783804474E0
1.445255129E1,-9.613009644E-1,3.849993896E-1,9.795629883E0
1.446260129E1,-1.348695374E0,3.528163147E-1,9.685608673E0
1.447265129E1,-1.126856689E0,2.788700867E-1,9.709109802E0
1.448270029E1,-1.223854980E0,-9.580078125E-3,9.779014435E0
1.449275029E1,-2.259551239E0,-2.474354553E-1,9.686955872E0
1.450280029E1,-1.590292969E0,1.945953369E-3,9.646839294E0
1.451284929E1,-2.307301941E0,-1.009201355E0,9.746981049E0
1.452289929E1,-2.299817505E0,-1.938468933E-1,9.854158173E0
1.453294929E1,-3.290307770E0,-1.719923401E-1,9.752519531E0
1.454299829E1,-2.956202545E0,-1.592687988E-1,9.346563721E0
1.455304829E1,-3.188519440E0,-4.288581848E-1,9.960137787E0
1.456309829E1,-4.251908112E0,-4.932243347E-1,9.569001160E0
1.457314829E1,-3.966751099E0,-1.619631958E-1,9.590855713E0
1.458319729E1,-5.384452972E0,-2.914439392E-1,9.868528290E0
1.459324729E1,-5.343138885E0,1.936972046E-1,9.715696106E0
1.460329729E1,-5.782026215E0,-2.426454163E-1,9.680070190E0
1.461334629E1,-6.157595215E0,8.292755127E-2,9.697434082E0
1.462339629E1,-6.282136230E0,3.332070923E-1,9.659862213E0
1.463344629E1,-6.549031219E0,-1.451980591E-2,9.647887115E0
1.464349529E1,-6.132597198E0,-9.699829102E-2,9.696535950E0
1.465354529E1,-6.539151764E0,-5.749543762E-1,9.655072174E0
1.466359529E1,-6.496490479E0,-3.974235535E-1,9.670490112E0
1.467364429E1,-6.650669861E0,-5.215155029E-1,9.672735443E0
1.468369429E1,-7.263645172E0,-4.293072510E-1,9.694290619E0
1.469374429E1,-7.464377747E0,-1.534309387E-1,9.684860229E0
1.470379329E1,-7.514972534E0,-2.011816406E-1,9.685009918E0
1.471384329E1,-7.873327332E0,-6.090834045E-1,9.670041046E0
1.472389329E1,-7.146887970E0,-9.559121704E-1,9.693542175E0
1.473394604E1,-5.759123840E0,-1.203497314E0,9.723629608E0
1.474399604E1,-4.809199219E0,-9.996212769E-1,9.789342957E0
1.475404604E1,-5.627996521E0,-6.155200195E-1,9.691446533E0
1.476409504E1,-5.635630646E0,-1.302142181E0,9.753567352E0
1.477414504E1,-4.922663269E0,-9.159452820E-1,9.636061707E0
1.478419504E1,-5.615272980E0,2.216889954E-1,9.658814392E0
1.479424404E1,-5.773194580E0,-3.784130859E-1,9.684261475E0
1.480429404E1,-5.558091888E0,-4.652325439E-1,9.730066223E0
1.481434404E1,-5.650898895E0,-1.571731567E-1,9.645342407E0
1.482439304E1,-5.587879944E0,-1.407073975E-2,9.665550385E0
1.483444304E1,-5.654042358E0,-2.237846375E-1,9.696685638E0
1.484449304E1,-5.134173431E0,-3.787124634E-2,9.672436066E0
1.485454204E1,-4.383933563E0,-1.071771240E-1,9.697583771E0
1.486459204E1,-4.053869934E0,-3.332070923E-1,9.711055756E0
1.487464204E1,-3.168161774E0,-1.639091492E-1,9.752968597E0
1.488469204E1,-1.960922241E0,-4.171824646E-1,9.732910309E0
1.489474104E1,-2.609822845E0,-4.324507141E-1,9.740843811E0
1.490479104E1,-2.702929230E0,3.867956543E-1,9.781559143E0
1.491484104E1,-2.892584839E0,-5.209167480E-2,9.676327972E0
1.492489004E1,-2.126328278E0,-3.071612549E-1,9.782008209E0
1.493494004E1,-1.980681152E0,-6.408174133E-1,9.771380310E0
1.494499004E1,-1.919608154E0,-8.634045410E-1,9.758956146E0
1.495503904E1,-1.630259857E0,-9.538165283E-1,9.794731750E0
1.496508904E1,-7.355703735E-1,-1.143023071E0,9.724677429E0
1.497513904E1,-2.070195007E-1,-1.415306854E0,9.786199493E0
1.498518804E1,3.926335144E-1,-1.237626343E0,9.792037354E0
1.499523804E1,-5.492079163E-1,-6.759942627E-1,9.699679413E0
1.500528804E1,-2.389031982E-1,-3.068618774E-1,9.783355408E0
1.501533704E1,-7.448510742E-1,-9.392967224E-1,9.809401245E0
1.502538704E1,1.431024170E-1,-1.139879608E0,9.635612640E0
1.503543704E1,1.959425354E-1,-1.809287567E0,9.764644318E0
1.504548604E1,7.153623962E-1,-1.004411316E0,9.646689606E0
1.505553604E1,1.234931946E-1,-1.294957123E0,9.623487854E0
1.506558604E1,3.814068604E-1,-7.717950439E-1,9.732461243E0
1.507563504E1,-9.879455566E-3,-6.180647278E-1,9.992171173E0
1.508568504E1,-5.288502502E-1,-1.303788757E-1,9.764494629E0
1.509573504E1,-8.716374207E-1,-2.911445618E-1,9.725425873E0
1.510578404E1,4.360432434E-1,-3.546125793E-1,9.749675446E0
1.511583404E1,5.748046875E-2,-9.116043091E-1,9.791887665E0
1.512588404E1,2.896476746E-1,-2.695893860E-1,9.856253815E0
1.513593404E1,6.270460510E-1,-7.900570679E-1,9.730365601E0
1.514598304E1,1.656754761E0,-8.080197144E-1,9.826765137E0
1.515603304E1,1.982327728E0,-7.797285461E-1,9.791887665E0
1.516608304E1,2.473007355E0,-7.942483521E-1,9.787696381E0
1.517613204E1,2.949765930E0,-6.001020813E-1,9.811496887E0
1.518618204E1,3.280128937E0,-6.456074524E-1,9.738598480E0
1.519623204E1,3.776796112E0,-4.980143738E-1,9.858199768E0
1.520628104E1,3.930975494E0,-7.664062500E-2,9.795480194E0
1.521633104E1,4.289479980E0,2.853067017E-1,9.843530273E0
1.522638104E1,4.222569122E0,4.833448792E-1,9.830207977E0
1.523643004E1,4.206552429E0,8.669970703E-1,9.804311829E0
1.524648004E1,4.226461029E0,1.054107971E0,9.792636108E0
1.525653004E1,4.636009369E0,1.365909576E0,9.816885681E0
1.526657904E1,4.446653137E0,1.606609039E0,9.822124786E0
1.527662904E1,4.292473755E0,2.046843567E0,9.815837860E0
1.528667904E1,4.075574799E0,2.365231476E0,9.811945953E0
1.529672804E1,4.318070526E0,2.413730621E0,9.809850311E0
1.530677804E1,4.355492706E0,2.045346680E0,9.819280701E0
1.531682804E1,4.126918030E0,1.992805939E0,9.779912567E0
1.532687704E1,3.696562958E0,2.047142944E0,9.790241089E0
1.533692704E1,2.974015503E0,2.238295441E0,9.796378326E0
1.534697704E1,2.361489258E0,2.687211914E0,9.790839844E0
1.535702704E1,1.868115234E0,2.818788300E0,9.767488403E0
1.536707604E1,2.019151154E0,2.054028625E0,9.790839844E0
1.537712604E1,1.345402222E0,2.759810944E0,9.787546692E0
1.538717604E1,9.818083191E-1,2.980152740E0,9.750872955E0
1.539722504E1,1.016536102E0,2.586920471E0,9.782756653E0
1.540727504E1,6.497987366E-1,1.489402771E0,1.074570419E1
1.541732504E1,2.159409485E0,-3.496728516E-1,1.185474792E1
1.542737404E1,2.785707092E-1,5.622158661E0,6.730154572E0
1.543742404E1,-1.490749969E0,1.226399689E0,9.320368195E0
1.544747404E1,8.141569519E-1,4.275109863E-1,9.691147156E0
1.545752304E1,1.945953369E-1,7.439529419E-1,1.003827530E1
1.546757304E1,-5.418731689E-2,2.273023224E0,9.757010193E0
1.547762304E1,-4.484674072E-1,1.202299805E0,9.889484711E0
1.548767204E1,4.586462402E-1,2.529290314E0,9.741592255E0
1.549772204E1,4.587959290E-1,1.620081024E0,9.821076965E0
1.550777204E1,1.724414062E-1,8.707392883E-1,9.737400970E0
1.551782104E1,1.781295776E-1,1.951791229E0,9.733359375E0
1.552787104E1,1.552272034E-1,8.325686646E-1,9.840386810E0
1.553792104E1,2.182461548E-1,8.402027893E-1,9.732012177E0
1.554797004E1,-4.197271729E-1,-6.177653503E-1,9.785900116E0
1.555802004E1,6.436614990E-3,-1.737886047E-1,9.857451324E0
1.556807004E1,2.710862732E-1,1.163530426E0,9.835447083E0
1.557811904E1,4.379891968E-1,2.635419617E0,9.664203186E0
1.558816904E1,-1.945953369E-2,2.378853149E0,9.564360809E0
1.559821904E1,-3.727249146E-2,2.048340454E0,9.871072998E0
1.560826804E1,3.517684937E-1,2.489323425E0,9.705068207E0
1.561831804E1,8.232879639E-3,2.003284149E0,9.761351166E0
1.562836804E1,-2.856060791E-1,1.340911560E0,9.852960663E0
1.563841704E1,1.092727661E-2,2.937042389E0,9.725126495E0
1.564846704E1,-3.375480652E-1,2.448159027E0,9.770931244E0
1.565851704E1,-3.420387268E-1,1.504072266E0,9.764344940E0
1.566856704E1,-3.544628906E-1,1.237776031E0,9.706116028E0
1.567861604E1,-4.019142151E-1,1.630858612E0,9.752369843E0
1.568866604E1,-2.465373230E-1,1.938917999E0,9.724827118E0
1.569871604E1,-3.504212952E-1,4.535568237E-2,9.731712799E0
1.570876504E1,-6.384223938E-1,4.053570557E-1,9.796827393E0
1.571881504E1,-6.355783081E-1,6.698570251E-1,9.734556885E0
1.572886504E1,-6.177653503E-1,-2.591111755E-1,9.769134979E0
1.573891325E1,-6.806346130E-1,-5.180726624E-1,9.738748169E0
1.574896325E1,-6.828799438E-1,-6.755451965E-1,9.785451050E0
1.575901325E1,-5.325924683E-1,-1.390608215E0,9.791438599E0
1.576906225E1,-4.201762390E-1,-2.089205475E0,9.759405212E0
1.577911225E1,-3.885919189E-1,-1.565594330E0,9.753567352E0
1.578916225E1,-3.939807129E-1,-2.342329102E0,9.763446808E0
1.579921125E1,-5.860313416E-1,-2.314187622E0,9.758507080E0
1.580926125E1,-9.277706909E-1,-2.330803070E0,9.777816925E0
1.581931125E1,-1.090332642E0,-2.778222656E0,9.784852295E0
1.582936025E1,-8.394543457E-1,-2.210153961E0,9.757159882E0
1.583941025E1,-9.599537659E-1,-2.405647430E0,9.778116302E0
1.584946025E1,-1.047521667E0,-2.461181946E0,9.783804474E0
1.585950925E1,-1.067579956E0,-2.624941406E0,9.800569611E0
1.586955925E1,-9.674382019E-1,-2.775677948E0,9.770182800E0
1.587960925E1,-7.197033691E-1,-1.957479401E0,9.769434357E0
1.588965925E1,-7.723937988E-1,-1.898801422E0,9.769434357E0
1.589970825E1,-7.583230591E-1,-2.172881470E0,9.749675446E0
1.590975825E1,-7.789801025E-1,-2.252066803E0,9.764644318E0
1.591980825E1,-7.958949280E-1,-1.957928467E0,9.772128754E0
1.592985725E1,-8.744815063E-1,-1.694775696E0,9.767338715E0
1.593990725E1,-4.947212219E-1,-1.750010834E0,9.772428131E0
1.594995725E1,-2.987786865E-1,-1.582509155E0,9.791139221E0
1.596000625E1,-1.315763855E-1,-3.200344849E-1,9.785750427E0
1.597005625E1,-1.481918335E-2,3.742218018E-2,9.767638092E0
1.598010625E1,-6.791377258E-1,-4.793481903E0,9.827962646E0
1.599015525E1,-1.948947144E0,-1.336346054E1,9.611812134E0
1.600020525E1,-3.251239014E-1,-2.836301880E0,9.898316345E0
1.601025525E1,-5.742059326E-1,-2.474504242E0,9.858798523E0
1.602030425E1,-5.542973328E-1,-1.235830078E0,9.749675446E0
1.603035425E1,-2.336640930E-1,-1.121168518E-1,9.820478210E0
1.604040425E1,-2.296224976E-1,-7.229965210E-2,9.772128754E0
1.605045325E1,-2.630030823E-1,-1.972897339E-1,9.748028870E0
1.606050325E1,-3.137475586E-1,-2.890489197E-1,9.832004242E0
1.607055325E1,-2.990780640E-1,-4.622387695E-1,9.715097351E0
1.608060225E1,-1.140628052E-1,-7.259902954E-2,9.814191284E0
1.609065225E1,-1.242416382E-1,-2.332150269E-1,9.793384552E0
1.610070225E1,-5.269042969E-2,-6.081852722E-1,9.729168091E0
1.611075125E1,1.392105103E-1,-1.093027039E0,9.764045563E0
1.612080125E1,3.652404785E-1,-1.380579071E0,9.692045288E0
1.613085125E1,4.355941772E-1,-1.807940369E0,9.792636108E0
1.614090125E1,8.422984314E-1,-3.693868561E0,9.907147980E0
1.615095025E1,6.918612671E-1,-5.258115692E0,9.692194977E0
1.616100025E1,5.533992004E-1,-4.469555511E0,9.743837585E0
1.617105025E1,1.820214844E-1,-3.450325012E0,9.814640350E0
1.618109925E1,-4.237687683E-1,-3.395538940E0,9.879006500E0
1.619114925E1,-2.893482971E-1,-4.500391388E0,9.833351440E0
1.620119925E1,-9.416917419E-1,-5.135370941E0,9.811047821E0
1.621124825E1,-1.407822418E0,-3.930227051E0,9.820029144E0
1.622129825E1,-1.132544861E0,-3.263663177E0,9.791288910E0
1.623134825E1,-6.243516541E-1,-3.960164795E0,9.746082916E0
1.624139725E1,-4.559518433E-1,-3.909719696E0,9.747729492E0
1.625144725E1,-4.206253052E-1,-3.503763885E0,9.761800232E0
1.626149725E1,-4.942721558E-1,-3.869603119E0,9.756112061E0
1.627154625E1,-6.854246521E-1,-3.701951752E0,9.790989532E0
1.628159625E1,-9.310638428E-1,-2.916235657E0,9.745334473E0
1.629164625E1,-9.979747009E-1,-2.779420166E0,9.795031128E0
1.630169525E1,-7.414082336E-1,-2.694846039E0,9.797575836E0
1.631174525E1,-9.734257507E-1,-2.222129059E0,9.757010193E0
1.632179525E1,-1.190624084E0,-2.322869568E0,9.752519531E0
1.633184425E1,-8.150550842E-1,-2.745440826E0,9.742340698E0
1.634189425E1,-6.876699829E-1,-2.536325684E0,9.786798248E0
1.635194425E1,-1.011895752E0,-2.222278748E0,9.774673462E0
1.636199325E1,-9.157955933E-1,-2.337089996E0,9.722282410E0
1.637204325E1,-8.750802612E-1,-1.088536377E0,9.804311829E0
1.638209325E1,-3.585044861E-1,-8.354127502E-1,9.779613190E0
1.639214325E1,1.440005493E-1,-8.313711548E-1,9.717941437E0
1.640219225E1,3.356021118E-1,-9.391470337E-1,9.888885956E0
1.641224225E1,4.640350342E-2,-4.414320374E-1,9.752818909E0
1.642229225E1,-4.176315308E-2,5.954617310E-1,9.734706573E0
1.643234125E1,2.842588806E-1,2.360591125E-1,9.813442841E0
1.644239125E1,3.481759644E-1,2.649490356E-2,9.700577545E0
1.645244125E1,1.597178650E-1,1.002764740E0,9.688752136E0
1.646249025E1,2.366578674E-1,9.123527527E-1,9.748927002E0
1.647254025E1,1.236428833E-1,1.172811127E0,9.710906067E0
1.648259025E1,-2.621049500E-1,1.972148895E0,9.824819183E0
1.649263925E1,-2.601589966E-1,2.986289978E0,9.731563110E0
1.650268925E1,6.436614990E-3,2.585722961E0,9.789043579E0
1.651273925E1,5.114863586E-1,2.364333344E0,9.759854279E0
1.652278825E1,2.671943665E-1,1.984123993E0,9.620194702E0
1.653283825E1,7.346722412E-1,2.226769409E0,9.895023193E0
1.654288825E1,1.298250275E0,3.520828400E0,9.845625916E0
1.655293725E1,8.655001831E-1,2.092049561E0,8.019423523E0
1.656298725E1,-1.871109009E-1,3.287613373E0,1.125225082E1
1.657303725E1,5.987548828E-4,5.466332703E0,9.814041595E0
1.658308625E1,3.379971313E-1,5.001998291E0,9.595795441E0
1.659313625E1,4.860392761E-1,4.402944031E0,9.940079498E0
1.660318625E1,6.418652344E-1,4.647685089E0,1.016551071E1
1.661323625E1,6.634204102E-1,4.654870148E0,7.579039307E0
1.662328525E1,3.911366272E-1,6.613996124E0,1.035052597E1
1.663333525E1,9.792636108E-1,6.906936951E0,1.067145859E1
1.664338525E1,4.011657715E-1,6.173013153E0,8.504414978E0
1.665343425E1,1.672023010E-1,7.446864166E0,9.842482452E0
1.666348425E1,1.773811340E-1,7.734116821E0,1.073357941E1
1.667353425E1,-9.116043091E-2,7.035369873E0,9.808353424E0
1.668358325E1,-3.209326172E-1,6.121520233E0,9.867480469E0
1.669363325E1,7.517367554E-1,5.556295624E0,9.912536774E0
1.670368325E1,-2.634521484E-1,4.913532257E0,9.923913116E0
1.671373225E1,-3.034190369E-1,4.434977417E0,9.048084412E0
1.672378225E1,-1.378633118E-1,4.281396790E0,1.011386810E1
1.673382863E1,-3.486250305E-1,4.107159119E0,9.805509338E0
1.674387762E1,-3.620970154E-1,3.885320435E0,9.338630219E0
1.675392762E1,-1.014290771E0,2.149829407E0,1.079345490E1
1.676397762E1,7.412585449E-1,9.433383179E-1,1.082668579E1
1.677402662E1,2.139051819E-1,2.612068176E0,9.330097961E0
1.678407662E1,2.552192688E-1,3.388503571E0,7.234156494E0
1.679412662E1,-5.697152710E-1,4.769531708E0,8.336314545E0
1.680417662E1,-6.893165588E-1,2.584076385E0,1.177211975E1
1.681422562E1,-1.993853760E-1,3.481310577E0,9.560319214E0
1.682427562E1,4.677772522E-1,2.583926697E0,9.470955048E0
1.683432562E1,3.790118408E-1,1.890418854E0,9.927655334E0
1.684437462E1,-4.914280701E-1,6.361770630E-2,1.388572449E1
1.685442462E1,-1.034648438E0,4.473297729E0,4.311334534E0
1.686447462E1,4.718188477E-1,1.224753113E0,8.426427155E0
1.687452362E1,3.158432007E-1,1.920805664E0,1.344249619E1
1.688457362E1,-3.637435913E-1,3.329526215E0,9.284143524E0
1.689462362E1,-6.677613831E-1,2.652783508E0,9.156009979E0
1.690467262E1,3.888912964E-1,1.293909302E0,1.003962250E1
1.691472262E1,1.116677856E0,1.048270111E0,9.826316071E0
1.692477262E1,8.170010376E-1,6.990463257E-1,9.675579529E0
1.693482162E1,5.159770203E-1,1.111139374E0,9.821526031E0
1.694487162E1,6.231541443E-1,9.493258667E-1,9.771529999E0
1.695492162E1,9.081614685E-1,8.427474976E-2,9.828112335E0
1.696497062E1,1.195414124E0,6.828799438E-1,9.847422180E0
1.697502062E1,7.012916565E-1,9.728269958E-1,9.672735443E0
1.698507062E1,1.805245972E-1,6.439608765E-1,9.862540741E0
1.699511962E1,2.671943665E-1,3.373983765E-1,9.592352600E0
1.700516962E1,-1.228944397E-1,-1.291813660E-1,9.921967163E0
1.701521962E1,-4.236190796E-1,-2.848576355E-1,9.786199493E0
1.702526962E1,-1.797761536E-1,7.583230591E-1,9.745633850E0
1.703531862E1,1.191522217E-1,5.316943359E-1,9.759704590E0
1.704536862E1,-4.460723877E-2,2.230361938E-2,9.706565094E0
1.705541862E1,-6.599775696E-1,2.369572449E-1,9.835596771E0
1.706546762E1,-1.135538635E0,-4.522096252E-1,9.844278717E0
1.707551762E1,-7.614665222E-1,-6.999444580E-1,9.624984741E0
1.708556762E1,-4.248165894E-1,-2.511776733E-1,9.530830536E0
1.709561662E1,-3.182382202E-1,-6.066883850E-1,9.546697540E0
1.710566662E1,-2.989283752E-1,-4.875361633E-1,9.906399536E0
1.711571662E1,-7.917036438E-1,-5.770500183E-1,1.006432114E1
1.712576562E1,-8.418493652E-1,-1.233584747E0,9.772128754E0
1.713581562E1,-7.331753540E-1,-1.435664520E0,9.787397003E0
1.714586562E1,-3.989204407E-1,-1.038839722E0,9.792785797E0
1.715591462E1,-4.276606750E-1,-1.514400787E0,9.754764862E0
1.716596462E1,-2.930905151E-1,-2.330952759E0,9.670041046E0
1.717601463E1,-5.288502502E-1,-1.553768921E0,9.841284943E0
1.718606362E1,-8.357121277E-1,-1.750160522E0,9.951006775E0
1.719611362E1,-8.376580811E-1,-2.290237427E0,9.720635834E0
1.720616363E1,-6.491999817E-1,-2.553988953E0,9.932744751E0
1.721621262E1,-6.637197876E-1,-2.799179077E0,9.861941986E0
1.722626262E1,-6.192622375E-1,-3.860621796E0,9.733059998E0
1.723631262E1,-3.200344849E-1,-4.239933014E0,1.015518219E1
1.724636262E1,-1.291813660E-1,-3.921694794E0,1.064616119E1
1.725641162E1,-3.854484558E-1,-3.757037201E0,1.104912323E1
1.726646162E1,-1.229243774E0,-4.235741730E0,1.095242432E1
1.727651162E1,-1.266965332E0,-5.601351929E0,1.062640228E1
1.728656062E1,-9.975256348E-1,-7.143594818E0,1.114926498E1
1.729661062E1,-3.245251465E0,-1.314985474E1,1.165715881E1
1.730666062E1,-2.692900085E-1,-1.692979431E0,7.453300781E0
1.731670962E1,-5.108876038E-1,-5.248535614E0,7.925568695E0
1.732675962E1,-2.264790344E0,-6.049220581E0,1.070588699E1
1.733680962E1,3.397933960E-2,-4.561763763E0,1.105795486E1
1.734685862E1,-5.475613403E-1,-6.253246307E0,6.330635376E0
1.735690862E1,-9.945318604E-1,-4.109404449E0,8.499924316E0
1.736695862E1,3.308120728E-1,-4.340823212E0,1.010099487E1
1.737700762E1,-5.833369446E-1,-5.266198883E0,9.689350891E0
1.738705762E1,-1.153501282E0,-5.671406250E0,1.002480331E1
1.739710762E1,-6.968009949E-1,-5.586832123E0,9.980345764E0
1.740715662E1,-7.140151978E-2,-4.811294861E0,9.726922760E0
1.741720662E1,-2.281256104E-1,-5.388344879E0,1.010758118E1
1.742725662E1,-5.833369446E-1,-5.764362946E0,9.948013000E0
1.743730662E1,-8.698411560E-1,-6.030659180E0,1.034603531E1
1.744735562E1,-1.022373962E-1,-5.789510651E0,1.052476364E1
1.745740562E1,-1.261875916E-1,-6.009403381E0,1.036489609E1
1.746745562E1,-3.230282593E-1,-6.253545685E0,1.035232224E1
1.747750462E1,-9.680369568E-1,-6.339916077E0,1.011925690E1
1.748755462E1,-1.937870178E0,-6.034551086E0,1.031684601E1
1.749760462E1,-2.099384308E0,-5.416037292E0,1.036848862E1
1.750765362E1,-2.019600220E0,-5.316194916E0,1.022912842E1
1.751770362E1,-2.370320892E0,-4.806205444E0,9.985884247E0
1.752775362E1,-2.323767700E0,-4.419409790E0,9.740544434E0
1.753780262E1,-2.486778717E0,-4.356241150E0,1.049018555E1
1.754785262E1,-2.297572174E0,-4.472848663E0,1.086889801E1
1.755790262E1,-2.066153412E0,-4.223616943E0,1.055814423E1
1.756795162E1,-2.562970276E0,-3.412154388E0,1.037028488E1
1.757800162E1,-2.251318359E0,-3.605103149E0,9.429491272E0
1.758805162E1,-1.134490814E0,-4.315825195E0,9.909692688E0
1.759810062E1,-9.386979675E-1,-3.794160004E0,9.560169525E0
1.760815062E1,-8.258326721E-1,-3.153043213E0,8.470884705E0
1.761820063E1,-8.119116211E-1,-2.773432617E0,8.792266388E0
1.762824962E1,-6.289920044E-1,-2.639610901E0,9.715845795E0
1.763829962E1,-6.533912659E-1,-2.489772491E0,9.997709656E0
1.764834963E1,-9.728269958E-1,-1.992057495E0,9.285191345E0
1.765839962E1,-1.466650085E0,-1.541644135E0,8.909322968E0
1.766844862E1,-1.169368286E0,-1.385069733E0,9.679471436E0
1.767849862E1,-6.947053528E-1,-1.411414948E0,1.010174332E1
1.768854862E1,-1.149759064E0,-1.445244598E0,9.774972839E0
1.769859762E1,-1.872456207E0,-1.447340240E0,9.612410889E0
1.770864762E1,-2.236648865E0,-1.396895142E0,9.916578369E0
1.771869762E1,-2.336491241E0,-1.246308289E0,1.090856552E1
1.772874662E1,-2.233056335E0,-1.042731628E0,1.165461411E1
1.773879787E1,-2.260299683E0,-5.769003296E-1,1.179217804E1
1.774884787E1,-2.352957001E0,-3.962260437E-1,1.185774170E1
1.775889687E1,-2.371368713E0,-2.957849121E-1,1.280018188E1
1.776894687E1,-2.297572174E0,-2.844085693E-2,1.348201401E1
1.777899687E1,-2.590513000E0,9.969268799E-2,1.319700668E1
1.778904587E1,-2.734812927E0,1.266366577E-1,1.276994476E1
1.779909588E1,-2.276466064E0,2.793191528E-1,1.318413345E1
1.780914587E1,-1.820663910E0,2.790197754E-1,1.326227097E1
1.781919487E1,-1.378633118E0,1.724414062E-1,1.366059265E1
1.782924487E1,-1.109642487E0,2.302212524E-1,1.406550064E1
1.783929487E1,-1.588496704E0,6.054908752E-1,1.368663849E1
1.784934487E1,-1.690135345E0,9.038204956E-1,1.285841080E1
1.785939387E1,-1.532962189E0,9.117539978E-1,1.249915787E1
1.786944387E1,-1.526824951E0,1.004411316E0,1.188378754E1
1.787949387E1,-1.230141907E0,1.135089569E0,1.188528442E1
1.788954287E1,-1.084045715E0,1.222657471E0,1.222822128E1
1.789959287E1,-1.532513123E0,1.641935577E0,1.198138458E1
1.790964287E1,-1.617686005E0,2.187550964E0,1.162273041E1
1.791969187E1,-1.887125702E0,2.591111755E0,1.129491211E1
1.792974187E1,-2.035018158E0,3.094514923E0,1.032807266E1
1.793979187E1,-1.774859161E0,3.687881012E0,9.543554077E0
1.794984087E1,-1.495240631E0,4.058061218E0,9.483977966E0
1.795989087E1,-1.186432800E0,4.445455627E0,8.941805420E0
1.796994087E1,-1.169967041E0,4.771627350E0,8.917256470E0
1.797998987E1,-1.240021362E0,5.056634674E0,8.593479767E0
1.799003987E1,-1.606609039E0,5.377417603E0,8.067623291E0
1.800008987E1,-1.238225098E0,5.817801819E0,8.259224854E0
1.801013887E1,-1.022972717E0,5.877228241E0,8.018824768E0
1.802018887E1,-1.001866608E0,5.976172485E0,7.578290863E0
1.803023887E1,-8.557704163E-1,6.268664246E0,8.039631500E0
1.804028887E1,-9.714797974E-1,6.655609589E0,8.845555573E0
1.805033787E1,-1.084195404E0,7.076234894E0,8.780890045E0
1.806038787E1,-1.021176453E0,7.099885712E0,8.994795227E0
1.807043787E1,-3.975732422E-1,7.049739990E0,8.887169037E0
1.808048687E1,-3.448828125E-1,7.075636139E0,8.098159790E0
1.809053687E1,-1.469943237E-1,6.964417419E0,7.895630951E0
1.810058687E1,6.676116943E-2,6.778054962E0,7.836503906E0
1.811063587E1,6.316864014E-2,6.518794098E0,7.512427826E0
1.812068587E1,3.625460815E-1,6.345005493E0,7.707921295E0
1.813073587E1,3.716770935E-1,6.224356384E0,7.709418182E0
1.814078487E1,2.472857666E-1,6.068081360E0,7.738906860E0
1.815083487E1,1.556762695E-1,5.898484039E0,7.967481537E0
1.816088487E1,-2.764750671E-1,5.679938507E0,8.235873413E0
1.817093387E1,-4.146377563E-1,5.549559631E0,8.552614746E0
1.818098387E1,-5.050497437E-1,5.312303009E0,8.990454254E0
1.819103387E1,-8.924441528E-1,4.963079224E0,9.007668457E0
1.820108287E1,-1.277293854E0,4.811294861E0,8.933422852E0
1.821113287E1,-1.360969849E0,4.796924744E0,9.627679138E0
1.822118287E1,-1.448537750E0,4.695735168E0,1.039872574E1
1.823123287E1,-1.874102783E0,4.630021820E0,1.048494644E1
1.824128188E1,-2.428400116E0,4.389921112E0,1.051503387E1
1.825133187E1,-2.450703735E0,4.113895111E0,1.074495575E1
1.826138187E1,-2.143692169E0,3.738475800E0,1.131601822E1
1.827143088E1,-2.070344696E0,3.344644775E0,1.108250381E1
1.828148087E1,-2.161654816E0,2.959795074E0,1.036923706E1
1.829153087E1,-1.791474609E0,2.563718719E0,1.022852966E1
1.830157987E1,-1.488504639E0,2.236050110E0,1.094149704E1
1.831162987E1,-1.633403320E0,2.075434113E0,1.169562881E1
1.832167987E1,-2.328108673E0,2.091001740E0,1.187495590E1
1.833172887E1,-3.123404846E0,2.069895630E0,1.192719727E1
1.834177887E1,-2.932551727E0,1.978286133E0,1.243374390E1
1.835182887E1,-2.487527161E0,1.565145264E0,1.297007858E1
1.836187787E1,-2.157313843E0,1.403930511E0,1.265064285E1
1.837192787E1,-2.289938049E0,1.203946381E0,1.203018311E1
1.838197787E1,-2.160606995E0,7.420069885E-1,1.219484070E1
1.839202788E1,-2.124681702E0,2.933898926E-2,1.284823196E1
1.840207687E1,-2.255958710E0,-4.534071350E-1,1.404469391E1
1.841212687E1,-2.667003937E0,-9.160949707E-2,1.420905212E1
1.842217687E1,-3.194806366E0,-6.388714600E-1,1.388916733E1
1.843222587E1,-2.472558289E0,-1.360071716E0,1.403122192E1
1.844227587E1,-1.870360565E0,-1.488055573E0,1.436637497E1
1.845232587E1,-1.443747711E0,-1.128952332E0,1.358589798E1
1.846237487E1,-8.765771484E-1,-9.192384338E-1,1.291140060E1
1.847242487E1,-1.907034302E-1,-1.170266418E0,1.307141785E1
1.848247487E1,1.046324158E-1,-1.250349884E0,1.298983749E1
1.849252387E1,-1.930984497E-2,-1.408570862E0,1.267234772E1
1.850257387E1,7.679031372E-2,-1.216071167E0,1.166284698E1
1.851262387E1,1.454974365E-1,-1.587448883E0,1.101768860E1
1.852267287E1,3.875440979E-1,-1.832639008E0,1.013542328E1
1.853272287E1,5.971083069E-1,-1.913021851E0,9.289083252E0
1.854277287E1,8.544232178E-1,-1.558259583E0,8.655450897E0
1.855282187E1,8.728349304E-1,-1.274000702E0,8.697363739E0
1.856287187E1,6.286926270E-1,-1.511706390E0,9.385931854E0
1.857292187E1,5.394781494E-1,-1.466350708E0,1.019934036E1
1.858297187E1,3.679348755E-1,-1.122366028E0,1.013572266E1
1.859302087E1,-1.968406677E-1,-1.416354675E0,9.587861938E0
1.860307087E1,-3.345542908E-1,-1.599573669E0,8.902586975E0
1.861312087E1,6.541397095E-2,-1.202449493E0,8.671467590E0
1.862316987E1,-1.091230774E-1,-1.557062073E0,8.352031860E0
1.863321987E1,-7.101232910E-1,-1.779649200E0,9.082961884E0
1.864326987E1,-8.324189758E-1,-1.571282501E0,9.077273712E0
1.865331887E1,-6.352789307E-1,-1.578317871E0,9.212292938E0
1.866336887E1,-9.695338440E-1,-2.218087463E0,9.763895874E0
1.867341887E1,-6.373745728E-1,-2.034419403E0,9.984237671E0
1.868346788E1,-5.981561279E-1,-2.025737457E0,9.662706299E0
1.869351787E1,-7.689509583E-1,-2.119592285E0,9.195976868E0
1.870356787E1,-1.021026764E0,-2.344424744E0,9.098529510E0
1.871361688E1,-1.013242950E0,-2.663261719E0,9.768685913E0
1.872366687E1,-5.330415344E-1,-2.665806427E0,1.082653610E1
1.873371687E1,-2.439926147E-2,-2.846181335E0,1.137679184E1
1.874376492E1,3.649411011E-1,-3.011587372E0,1.154249725E1
1.875381492E1,3.067121887E-1,-3.134631500E0,1.099583405E1
1.876386492E1,9.355545044E-2,-3.279829559E0,1.052296738E1
1.877391492E1,-1.064286804E-1,-3.305576019E0,1.064092209E1
1.878396392E1,-2.868035889E-1,-3.265309753E0,1.132185608E1
1.879401392E1,-4.556524658E-1,-3.057841187E0,1.174846893E1
1.880406392E1,-6.352789307E-1,-2.994522858E0,1.212448700E1
1.881411292E1,-6.099815369E-1,-2.747237091E0,1.224363922E1
1.882416292E1,-6.622229004E-1,-2.368524628E0,1.174098450E1
1.883421292E1,-7.363188171E-1,-2.241438904E0,1.053164932E1
1.884426192E1,-8.963360596E-1,-2.351909180E0,9.283544769E0
1.885431192E1,-8.919950867E-1,-2.373164978E0,8.383017426E0
1.886436192E1,-1.025068359E0,-2.496508484E0,8.291407928E0
1.887441092E1,-6.625222778E-1,-2.530188446E0,8.774902496E0
1.888446092E1,-6.095324707E-1,-2.654430084E0,9.867031403E0
1.889451092E1,-4.138893127E-1,-2.686014404E0,1.086231171E1
1.890455992E1,-6.497987366E-1,-2.199376373E0,1.151884644E1
1.891460992E1,-1.163680115E0,-1.892215118E0,1.055245605E1
1.892465992E1,-1.884431305E0,-2.271526337E0,1.077908478E1
1.893470992E1,-1.712139587E0,-2.256258087E0,1.074899734E1
1.894475892E1,-1.554068298E0,-1.929786987E0,1.030801437E1
1.895480892E1,-1.810934143E0,-1.809437256E0,9.802365875E0
1.896485892E1,-2.493664398E0,-1.804647217E0,9.526938629E0
1.897490792E1,-2.504142609E0,-1.143472137E0,9.512867889E0
1.898495792E1,-1.936373291E0,-6.876699829E-1,9.579329681E0
1.899500792E1,-1.787582703E0,-1.130449219E0,9.377848663E0
1.900505692E1,-1.293160858E0,-8.020321655E-1,9.399553528E0
1.901510692E1,-6.032455444E-1,-4.492158508E-1,9.873168640E0
1.902515692E1,-1.914518738E-1,-7.327262878E-1,1.052102142E1
1.903520592E1,-3.251239014E-1,-1.072968750E0,1.064840652E1
1.904525592E1,-4.381388855E-1,-8.949888611E-1,1.056637711E1
1.905530592E1,-7.050338745E-1,-1.295106812E0,1.052206924E1
1.906535492E1,-8.008346558E-1,-1.820663910E0,1.053688843E1
1.907540492E1,-6.557862854E-1,-1.728305969E0,1.032642609E1
1.908545492E1,-5.550457764E-1,-1.805395660E0,9.793384552E0
1.909550392E1,-6.415658569E-1,-1.918560333E0,9.745633850E0
1.910555392E1,-7.406597900E-1,-1.870809631E0,9.899813232E0
1.911560392E1,-7.244934082E-1,-1.915865936E0,9.998158722E0
1.912565392E1,-7.141648865E-1,-1.777104492E0,1.000399658E1
1.913570292E1,-7.719447327E-1,-1.686243439E0,1.001746857E1
1.914575292E1,-4.631369019E-1,-1.621877289E0,1.005099884E1
1.915580292E1,-2.878514099E-1,-1.799108734E0,9.820328522E0
1.916585192E1,-3.712280273E-1,-1.549128571E0,9.798473969E0
1.917590192E1,-5.155279541E-1,-1.436113586E0,9.764344940E0
1.918595192E1,-5.677693176E-1,-9.740245056E-1,9.990374908E0
1.919600092E1,-7.599696350E-1,-8.316705322E-1,9.886640625E0
1.920605092E1,-7.120692444E-1,-7.556286621E-1,1.000549347E1
1.921610092E1,-7.141648865E-1,-8.027806091E-1,9.832004242E0
1.922614992E1,-6.051914978E-1,-7.695497131E-1,9.898615723E0
1.923619992E1,-3.224295044E-1,-5.519023132E-1,9.839488678E0
1.924624992E1,-4.763095093E-1,-3.754193115E-1,9.984986115E0
1.925629892E1,-1.408570862E-1,-6.301895142E-2,9.669591980E0
1.926634892E1,4.435276794E-1,2.606080627E-1,9.874964905E0
1.927639892E1,7.652087402E-1,-4.177812195E-1,9.786199493E0
1.928644892E1,1.381028137E0,-3.990701294E-1,9.822573853E0
1.929649792E1,1.518741760E0,-5.014572144E-2,9.839488678E0
1.930654792E1,1.325493622E0,2.396516418E-1,9.943821716E0
1.931659792E1,1.204994202E0,2.071691895E-1,1.010518616E1
1.932664692E1,9.348060608E-1,-7.679031372E-2,9.935588837E0
1.933669692E1,9.148974609E-1,-1.913021851E-1,9.667945404E0
1.934674692E1,1.022074585E0,3.074606323E-1,9.795929260E0
1.935679592E1,1.040486298E0,2.950364685E-1,9.976753235E0
1.936684592E1,8.993298340E-1,-6.923103333E-1,9.950707397E0
1.937689592E1,1.370549927E0,-2.778222656E-1,9.930050354E0
1.938694492E1,1.084345093E0,-4.019142151E-1,9.867330780E0
1.939699492E1,9.680369568E-1,-7.933502197E-3,9.911488953E0
1.940704492E1,4.282594299E-1,-9.337582397E-1,9.718540192E0
1.941709392E1,1.007255402E0,-1.044677582E0,9.801617432E0
1.942714392E1,5.393284607E-1,-1.203347626E0,9.544003143E0
1.943719392E1,8.066725159E-1,-7.203021240E-1,9.800868988E0
1.944724292E1,2.142045593E-1,-3.275189209E-1,1.015832565E1
1.945729292E1,7.017407227E-1,-3.083587646E-1,1.007135651E1
1.946734292E1,6.551875305E-1,-1.410067749E-1,1.008976822E1
1.947739292E1,4.894821167E-2,-2.975811768E-1,1.001222946E1
1.948744192E1,6.505471802E-1,1.190025330E-1,1.031744476E1
1.949749192E1,9.165440369E-1,-3.361110535E0,7.099586334E0
1.950754192E1,1.250649261E0,-3.082240448E0,5.983656921E0
1.951759092E1,1.260079651E0,-2.409090271E0,8.455616455E0
1.952764092E1,2.135309601E0,-3.535797272E0,7.625742188E0
1.953769092E1,1.169817352E0,-2.749183044E0,8.889114990E0
1.954773992E1,1.899549866E-1,-2.687361603E0,8.735684052E0
1.955778992E1,-2.163002014E-1,-2.317630463E0,8.611891479E0
1.956783992E1,-6.020480347E-1,-2.256108398E0,8.982371063E0
1.957788892E1,-8.181985474E-1,-2.392923889E0,9.307944031E0
1.958793892E1,-1.043480072E0,-2.379900970E0,9.404642944E0
1.959798892E1,-1.259929962E0,-2.664608917E0,1.021505768E1
1.960803792E1,-1.369801483E0,-2.465971985E0,1.116198853E1
1.961808792E1,-1.465452576E0,-2.188898163E0,1.141286682E1
1.962813792E1,-1.864373016E0,-2.242187347E0,1.151465515E1
1.963818792E1,-2.044448547E0,-2.071542206E0,1.145268402E1
1.964823692E1,-1.955084381E0,-1.825453949E0,1.084330124E1
1.965828692E1,-1.950743408E0,-1.778302002E0,1.126168121E1
1.966833692E1,-1.575623474E0,-1.841171265E0,1.180115936E1
1.967838592E1,-1.662592621E0,-1.774859161E0,1.190070236E1
1.968843592E1,-1.840871887E0,-1.572030945E0,1.153486313E1
1.969848592E1,-2.212848358E0,-1.344354401E0,1.129925308E1
1.970853492E1,-2.346221008E0,-1.060095520E0,1.154519165E1
1.971858492E1,-2.292632446E0,-5.872288513E-1,1.137619308E1
1.972863492E1,-2.107317810E0,-3.817062378E-1,1.146750320E1
1.973868425E1,-1.898651733E0,-2.965333557E-1,1.144205612E1
1.974873425E1,-2.130070496E0,-1.065783691E-1,1.095182556E1
1.975878425E1,-2.432292023E0,2.245330811E-2,1.093655731E1
1.976883325E1,-2.209854584E0,2.926414490E-1,1.168200714E1
1.977888325E1,-2.091450806E0,6.352789307E-1,1.190923462E1
1.978893325E1,-2.120490417E0,9.392967224E-1,1.218181778E1
1.979898225E1,-2.026785278E0,1.295106812E0,1.177511353E1
1.980903225E1,-1.891766052E0,1.322649536E0,1.151839737E1
1.981908225E1,-1.737586670E0,1.354832611E0,1.143981079E1
1.982913225E1,-1.681902466E0,1.880389709E0,1.116932327E1
1.983918125E1,-1.577270050E0,2.378104706E0,1.067624863E1
1.984923125E1,-1.672023010E0,2.613265686E0,1.062834824E1
1.985928125E1,-1.475631409E0,2.721790009E0,1.053224808E1
1.986933025E1,-1.303788757E0,2.573298798E0,1.047581543E1
1.987938025E1,-1.108145599E0,2.522853699E0,1.036998550E1
1.988943025E1,-1.005010071E0,2.640059967E0,9.905351715E0
1.989947925E1,-9.616003418E-1,2.797532501E0,9.608518982E0
1.990952925E1,-6.213578796E-1,3.012335815E0,9.676178284E0
1.991957925E1,-5.918692017E-1,3.157982941E0,9.460925903E0
1.992962825E1,-4.993615723E-1,3.466192017E0,9.279203796E0
1.993967825E1,-5.040019226E-1,3.680845642E0,9.643695831E0
1.994972825E1,-4.028123474E-1,3.969894562E0,1.043285477E1
1.995977725E1,-3.631448364E-1,4.248315582E0,1.041459274E1
1.996982725E1,-4.147874451E-1,4.414919128E0,1.062445633E1
1.997987725E1,4.206253052E-2,4.665498047E0,1.084090622E1
1.998992725E1,1.221459961E-1,4.901257782E0,1.048853897E1
1.999997625E1,-1.070274353E-1,5.059329071E0,1.017808456E1
2.001002625E1,-3.532653809E-2,5.240751801E0,1.025726990E1
2.002007625E1,6.301895142E-2,5.356760559E0,1.030337402E1
2.003012525E1,2.230361938E-2,5.334456940E0,1.023676254E1
2.004017525E1,9.370513916E-2,5.167554016E0,1.036354889E1
2.005022525E1,8.906478882E-2,4.946164398E0,1.080632812E1
2.006027425E1,1.043330383E-1,4.910239105E0,1.054033127E1
2.007032425E1,-1.803749084E-1,4.671485596E0,1.003543121E1
2.008037425E1,-1.652563477E-1,4.467908936E0,9.850565643E0
2.009042325E1,-1.315763855E-1,4.304598541E0,1.002106110E1
2.010047325E1,-3.320095825E-1,4.177961884E0,9.980046387E0
2.011052325E1,-6.036946106E-1,3.912713470E0,1.030936157E1
2.012057225E1,-5.550457764E-1,3.729943542E0,1.116737732E1
2.013062225E1,-5.200186157E-1,3.640279999E0,1.166090103E1
2.014067225E1,-7.631130981E-1,3.413651276E0,1.180804504E1
2.015072225E1,-7.526348877E-1,3.283122711E0,1.155417297E1
2.016077125E1,-7.824229431E-1,3.075803833E0,1.136272110E1
2.017082125E1,-7.798782349E-1,2.735112305E0,1.163964523E1
2.018087125E1,-7.563771057E-1,2.414329376E0,1.223555603E1
2.019092025E1,-7.961943054E-1,2.250569916E0,1.301019516E1
2.020097025E1,-7.852670288E-1,2.204765167E0,1.345536942E1
2.021102025E1,-9.069639587E-1,1.756896515E0,1.382285522E1
2.022106925E1,-7.346722412E-1,1.380878448E0,1.355251740E1
2.023111925E1,-8.704399109E-1,1.046473846E0,1.332514023E1
2.024116925E1,-7.689509583E-1,8.008346558E-1,1.315404602E1
2.025121825E1,-6.358776855E-1,6.197113037E-1,1.335672455E1
2.026126825E1,-3.339555359E-1,1.731898499E-1,1.384351227E1
2.027131825E1,-4.977149963E-1,-1.661544800E-1,1.334654572E1
2.028136825E1,-4.610412598E-1,-4.358935547E-1,1.306004150E1
2.029141725E1,-1.986369324E-1,-4.671784973E-1,1.279299683E1
2.030146725E1,-2.086660767E-1,-5.417234802E-1,1.291813660E1
2.031151725E1,5.149291992E-2,-6.872209167E-1,1.294343399E1
2.032156625E1,-5.209167480E-2,-6.198609924E-1,1.202195023E1
2.033161625E1,-2.118095398E-1,-8.831634521E-1,1.149639313E1
2.034166625E1,-2.724334717E-2,-8.294252014E-1,1.097412918E1
2.035171525E1,1.688488770E-1,-8.144563293E-1,1.053928345E1
2.036176525E1,2.321672058E-1,-1.073417816E0,9.917027435E0
2.037181525E1,-1.407073975E-2,-1.105451202E0,8.957073669E0
2.038186425E1,-4.507127380E-1,-1.375339966E0,8.987610168E0
2.039191425E1,-4.288581848E-1,-1.278491364E0,9.423803101E0
2.040196425E1,-3.342549133E-1,-1.262175293E0,9.791887665E0
2.041201325E1,-3.568579102E-1,-1.137035522E0,9.390272827E0
2.042206325E1,-4.240681458E-1,-7.607180786E-1,8.508157196E0
2.043211325E1,-5.742059326E-1,-8.583151245E-1,7.929310913E0
2.044216225E1,-3.670367432E-1,-7.584727478E-1,7.669301605E0
2.045221225E1,-3.360511780E-1,-4.525090027E-1,7.756121063E0
2.046226225E1,-3.658392334E-1,-1.913021851E-1,7.803722076E0
2.047231225E1,-3.382965088E-1,9.610015869E-2,7.568860474E0
2.048236125E1,-1.456471252E-1,1.969903564E-1,7.521409149E0
2.049241125E1,1.926493835E-1,4.300556946E-1,7.150929565E0
2.050246125E1,1.287322998E-1,5.831872559E-1,6.672374725E0
2.051251025E1,1.291813660E-1,5.719606018E-1,7.072043610E0
2.052256025E1,6.743476868E-1,7.423063660E-1,7.175478516E0
2.053261025E1,4.779560852E-1,5.604345703E-1,7.228618011E0
2.054265925E1,1.862127686E-1,5.385800171E-1,7.172634430E0
2.055270925E1,2.257305908E-1,6.965016174E-1,7.049590302E0
2.056275925E1,3.233276367E-1,6.953041077E-1,7.667355652E0
2.057280825E1,5.776487732E-1,6.123765564E-1,8.179141388E0
2.058285825E1,6.282435608E-1,4.415817261E-1,8.358618164E0
2.059290825E1,2.785707092E-1,2.534230042E-1,8.472531281E0
2.060295825E1,-3.173400879E-2,3.097059631E-1,8.575517120E0
2.061300725E1,-1.706451416E-2,3.094065857E-1,8.970845032E0
2.062305725E1,-1.263372803E-1,1.544787598E-1,9.380393372E0
2.063310725E1,-2.269281006E-1,-2.754272461E-2,9.877060547E0
2.064315625E1,1.053509216E0,4.646337891E-1,1.300166290E1
2.065320625E1,2.978805542E-1,-8.575666809E-1,2.094399673E1
